"STUDYID","DOMAIN","USUBJID","FASEQ","FASPID","FATESTCD","FATEST","FAOBJ","FACAT","FAORRES","FAORRESU","FABLFL","VISITNUM"
"test-studyid","FA","testusubjid-1609",NA,"jv6qCn","AVEDOSE","Average Dose","faobj-1","EXPOSURE","36","mg/m^2/day",NA,"1100"
"test-studyid","FA","testusubjid-1609",NA,"8vGLmk","AVEDOSE","Average Dose","faobj-2","EXPOSURE","20","mg/m^2/week",NA,"1100"
"test-studyid","FA","testusubjid-1609",NA,"JrJ5Fp","GRADE","Grade","faobj-3","PRE-SPECIFIED AE","0",NA,NA,"1000"
"test-studyid","FA","testusubjid-1609",NA,"WI7RZW","GRADE","Grade","faobj-3","PRE-SPECIFIED AE","0",NA,NA,"1100"
"test-studyid","FA","testusubjid-1609",NA,"s12IO0","GRADE","Grade","faobj-3","PRE-SPECIFIED AE","0",NA,NA,"200"
"test-studyid","FA","testusubjid-1609",NA,"yd0kon","GRADE","Grade","faobj-3","PRE-SPECIFIED AE","0",NA,NA,"400"
"test-studyid","FA","testusubjid-1609",NA,"sjC8H8","GRADE","Grade","faobj-3","PRE-SPECIFIED AE","0",NA,NA,"600"
"test-studyid","FA","testusubjid-1609",NA,"JFzW0q","GRADE","Grade","faobj-3","PRE-SPECIFIED AE","0",NA,NA,"700"
"test-studyid","FA","testusubjid-1609",NA,"yyPng1","GRADE","Grade","faobj-4","PRE-SPECIFIED AE","0",NA,NA,"1000"
"test-studyid","FA","testusubjid-1609",NA,"ybSaHy","GRADE","Grade","faobj-4","PRE-SPECIFIED AE","0",NA,NA,"1100"
"test-studyid","FA","testusubjid-1609",NA,"e6Odh1","GRADE","Grade","faobj-4","PRE-SPECIFIED AE","0",NA,NA,"200"
"test-studyid","FA","testusubjid-1609",NA,"kOp8hx","GRADE","Grade","faobj-4","PRE-SPECIFIED AE","0",NA,NA,"400"
"test-studyid","FA","testusubjid-1609",NA,"MnAgfn","GRADE","Grade","faobj-4","PRE-SPECIFIED AE","0",NA,NA,"600"
"test-studyid","FA","testusubjid-1609",NA,"r5ujwL","GRADE","Grade","faobj-4","PRE-SPECIFIED AE","0",NA,NA,"700"
"test-studyid","FA","testusubjid-1609",NA,"6FzlVa","GRADE","Grade","faobj-5","PRE-SPECIFIED AE","0",NA,NA,"1000"
"test-studyid","FA","testusubjid-1609",NA,"bTIWSK","GRADE","Grade","faobj-5","PRE-SPECIFIED AE","0",NA,NA,"1100"
"test-studyid","FA","testusubjid-1609",NA,"1xe6li","GRADE","Grade","faobj-5","PRE-SPECIFIED AE","0",NA,NA,"200"
"test-studyid","FA","testusubjid-1609",NA,"69KUGM","GRADE","Grade","faobj-5","PRE-SPECIFIED AE","0",NA,NA,"400"
"test-studyid","FA","testusubjid-1609",NA,"gqRtnf","GRADE","Grade","faobj-5","PRE-SPECIFIED AE","0",NA,NA,"600"
"test-studyid","FA","testusubjid-1609",NA,"98JqOn","GRADE","Grade","faobj-5","PRE-SPECIFIED AE","0",NA,NA,"700"
"test-studyid","FA","testusubjid-1609",NA,"ALJBvx","GRADE","Grade","faobj-6","PRE-SPECIFIED AE","0",NA,NA,"1000"
"test-studyid","FA","testusubjid-1609",NA,"BfL7Y3","GRADE","Grade","faobj-6","PRE-SPECIFIED AE","0",NA,NA,"1100"
"test-studyid","FA","testusubjid-1609",NA,"Nr43JV","GRADE","Grade","faobj-6","PRE-SPECIFIED AE","0",NA,NA,"200"
"test-studyid","FA","testusubjid-1609",NA,"PYT9fA","GRADE","Grade","faobj-6","PRE-SPECIFIED AE","0",NA,NA,"400"
"test-studyid","FA","testusubjid-1609",NA,"9pUSKI","GRADE","Grade","faobj-6","PRE-SPECIFIED AE","0",NA,NA,"600"
"test-studyid","FA","testusubjid-1609",NA,"qYOmZ9","GRADE","Grade","faobj-6","PRE-SPECIFIED AE","0",NA,NA,"700"
"test-studyid","FA","testusubjid-1609",NA,"kXJYgu","GRADE","Grade","faobj-7","PRE-SPECIFIED AE","2",NA,NA,"1000"
"test-studyid","FA","testusubjid-1609",NA,"RiDE3j","GRADE","Grade","faobj-7","PRE-SPECIFIED AE","0",NA,NA,"1100"
"test-studyid","FA","testusubjid-1609",NA,"fWJkXn","GRADE","Grade","faobj-7","PRE-SPECIFIED AE","0",NA,NA,"200"
"test-studyid","FA","testusubjid-1609",NA,"UdM8pC","GRADE","Grade","faobj-7","PRE-SPECIFIED AE","0",NA,NA,"400"
"test-studyid","FA","testusubjid-1609",NA,"6795qK","GRADE","Grade","faobj-7","PRE-SPECIFIED AE","0",NA,NA,"600"
"test-studyid","FA","testusubjid-1609",NA,"DyZglM","GRADE","Grade","faobj-7","PRE-SPECIFIED AE","0",NA,NA,"700"
"test-studyid","FA","testusubjid-1609",NA,"SqIKvr","GRADE","Grade","faobj-8","PRE-SPECIFIED AE","0",NA,NA,"200"
"test-studyid","FA","testusubjid-1609",NA,"2SvPZi","GRADE","Grade","faobj-8","PRE-SPECIFIED AE","0",NA,NA,"400"
"test-studyid","FA","testusubjid-1609",NA,"3j4vRK","GRADE","Grade","faobj-8","PRE-SPECIFIED AE","0",NA,NA,"700"
"test-studyid","FA","testusubjid-1609",NA,"S4B3C6","GRADE","Grade","faobj-9","PRE-SPECIFIED AE","0",NA,NA,"1000"
"test-studyid","FA","testusubjid-1609",NA,"IOVDC1","GRADE","Grade","faobj-9","PRE-SPECIFIED AE","0",NA,NA,"1100"
"test-studyid","FA","testusubjid-1609",NA,"nOSKS9","GRADE","Grade","faobj-9","PRE-SPECIFIED AE","0",NA,NA,"200"
"test-studyid","FA","testusubjid-1609",NA,"UiCH6P","GRADE","Grade","faobj-9","PRE-SPECIFIED AE","0",NA,NA,"400"
"test-studyid","FA","testusubjid-1609",NA,"0mStmW","GRADE","Grade","faobj-9","PRE-SPECIFIED AE","0",NA,NA,"600"
"test-studyid","FA","testusubjid-1609",NA,"vr7Crx","GRADE","Grade","faobj-9","PRE-SPECIFIED AE","0",NA,NA,"700"
"test-studyid","FA","testusubjid-1609",NA,"xOe1qC","GRADE","Grade","faobj-10","PRE-SPECIFIED AE","0",NA,NA,"1000"
"test-studyid","FA","testusubjid-1609",NA,"ipdxJC","GRADE","Grade","faobj-10","PRE-SPECIFIED AE","0",NA,NA,"1100"
"test-studyid","FA","testusubjid-1609",NA,"W0y56d","GRADE","Grade","faobj-10","PRE-SPECIFIED AE","0",NA,NA,"200"
"test-studyid","FA","testusubjid-1609",NA,"pJfJ0b","GRADE","Grade","faobj-10","PRE-SPECIFIED AE","0",NA,NA,"400"
"test-studyid","FA","testusubjid-1609",NA,"OqPEiH","GRADE","Grade","faobj-10","PRE-SPECIFIED AE","0",NA,NA,"600"
"test-studyid","FA","testusubjid-1609",NA,"K1TKv3","GRADE","Grade","faobj-10","PRE-SPECIFIED AE","0",NA,NA,"700"
"test-studyid","FA","testusubjid-1609",NA,"5r39CZ","TRT","Treatment","faobj-11","EXPOSURE","1",NA,"Y","1300"
"test-studyid","FA","testusubjid-4615",NA,"yLsfOX","GRADE","Grade","faobj-3","PRE-SPECIFIED AE","0",NA,NA,"1000"
"test-studyid","FA","testusubjid-4615",NA,"gJqDB1","GRADE","Grade","faobj-3","PRE-SPECIFIED AE","0",NA,NA,"200"
"test-studyid","FA","testusubjid-4615",NA,"6ob9Ja","GRADE","Grade","faobj-3","PRE-SPECIFIED AE","0",NA,NA,"400"
"test-studyid","FA","testusubjid-4615",NA,"aZJiFb","GRADE","Grade","faobj-3","PRE-SPECIFIED AE","0",NA,NA,"600"
"test-studyid","FA","testusubjid-4615",NA,"P6Bm4h","GRADE","Grade","faobj-3","PRE-SPECIFIED AE","0",NA,NA,"700"
"test-studyid","FA","testusubjid-4615",NA,"0jKakB","GRADE","Grade","faobj-3","PRE-SPECIFIED AE","0",NA,NA,"800"
"test-studyid","FA","testusubjid-4615",NA,"4we79c","GRADE","Grade","faobj-3","PRE-SPECIFIED AE","0",NA,NA,"900"
"test-studyid","FA","testusubjid-4615",NA,"VP8Tb9","GRADE","Grade","faobj-4","PRE-SPECIFIED AE","0",NA,NA,"1000"
"test-studyid","FA","testusubjid-4615",NA,"mlDFXC","GRADE","Grade","faobj-4","PRE-SPECIFIED AE","1",NA,NA,"200"
"test-studyid","FA","testusubjid-4615",NA,"WJ0zOY","GRADE","Grade","faobj-4","PRE-SPECIFIED AE","0",NA,NA,"400"
"test-studyid","FA","testusubjid-4615",NA,"utd1iQ","GRADE","Grade","faobj-4","PRE-SPECIFIED AE","0",NA,NA,"600"
"test-studyid","FA","testusubjid-4615",NA,"GuP1AJ","GRADE","Grade","faobj-4","PRE-SPECIFIED AE","0",NA,NA,"700"
"test-studyid","FA","testusubjid-4615",NA,"xwLAMP","GRADE","Grade","faobj-4","PRE-SPECIFIED AE","0",NA,NA,"800"
"test-studyid","FA","testusubjid-4615",NA,"uutsWK","GRADE","Grade","faobj-4","PRE-SPECIFIED AE","0",NA,NA,"900"
"test-studyid","FA","testusubjid-4615",NA,"7AIzaA","GRADE","Grade","faobj-5","PRE-SPECIFIED AE","0",NA,NA,"1000"
"test-studyid","FA","testusubjid-4615",NA,"Nrtxn2","GRADE","Grade","faobj-5","PRE-SPECIFIED AE","0",NA,NA,"200"
"test-studyid","FA","testusubjid-4615",NA,"EslnlY","GRADE","Grade","faobj-5","PRE-SPECIFIED AE","0",NA,NA,"400"
"test-studyid","FA","testusubjid-4615",NA,"qK93b2","GRADE","Grade","faobj-5","PRE-SPECIFIED AE","0",NA,NA,"600"
"test-studyid","FA","testusubjid-4615",NA,"KEjKN0","GRADE","Grade","faobj-5","PRE-SPECIFIED AE","0",NA,NA,"700"
"test-studyid","FA","testusubjid-4615",NA,"ZxQhiM","GRADE","Grade","faobj-5","PRE-SPECIFIED AE","0",NA,NA,"800"
"test-studyid","FA","testusubjid-4615",NA,"xcO1hL","GRADE","Grade","faobj-5","PRE-SPECIFIED AE","0",NA,NA,"900"
"test-studyid","FA","testusubjid-4615",NA,"i7wkcR","GRADE","Grade","faobj-6","PRE-SPECIFIED AE","0",NA,NA,"1000"
"test-studyid","FA","testusubjid-4615",NA,"1w2yWP","GRADE","Grade","faobj-6","PRE-SPECIFIED AE","0",NA,NA,"200"
"test-studyid","FA","testusubjid-4615",NA,"Gew7pZ","GRADE","Grade","faobj-6","PRE-SPECIFIED AE","0",NA,NA,"400"
"test-studyid","FA","testusubjid-4615",NA,"4BHUIq","GRADE","Grade","faobj-6","PRE-SPECIFIED AE","0",NA,NA,"600"
"test-studyid","FA","testusubjid-4615",NA,"H4Loy3","GRADE","Grade","faobj-6","PRE-SPECIFIED AE","0",NA,NA,"700"
"test-studyid","FA","testusubjid-4615",NA,"sPySKy","GRADE","Grade","faobj-6","PRE-SPECIFIED AE","0",NA,NA,"800"
"test-studyid","FA","testusubjid-4615",NA,"562b8w","GRADE","Grade","faobj-6","PRE-SPECIFIED AE","0",NA,NA,"900"
"test-studyid","FA","testusubjid-4615",NA,"uI7Wrt","GRADE","Grade","faobj-7","PRE-SPECIFIED AE","0",NA,NA,"1000"
"test-studyid","FA","testusubjid-4615",NA,"BnXNQN","GRADE","Grade","faobj-7","PRE-SPECIFIED AE","2",NA,NA,"200"
"test-studyid","FA","testusubjid-4615",NA,"E4A4I5","GRADE","Grade","faobj-7","PRE-SPECIFIED AE","1",NA,NA,"400"
"test-studyid","FA","testusubjid-4615",NA,"wLcc3E","GRADE","Grade","faobj-7","PRE-SPECIFIED AE","0",NA,NA,"600"
"test-studyid","FA","testusubjid-4615",NA,"ToChU4","GRADE","Grade","faobj-7","PRE-SPECIFIED AE","0",NA,NA,"700"
"test-studyid","FA","testusubjid-4615",NA,"mCL19O","GRADE","Grade","faobj-7","PRE-SPECIFIED AE","0",NA,NA,"800"
"test-studyid","FA","testusubjid-4615",NA,"JOpXyL","GRADE","Grade","faobj-7","PRE-SPECIFIED AE","2",NA,NA,"900"
"test-studyid","FA","testusubjid-4615",NA,"A4w3TP","GRADE","Grade","faobj-8","PRE-SPECIFIED AE","0",NA,NA,"200"
"test-studyid","FA","testusubjid-4615",NA,"s2rNou","GRADE","Grade","faobj-8","PRE-SPECIFIED AE","0",NA,NA,"400"
"test-studyid","FA","testusubjid-4615",NA,"iLqVp9","GRADE","Grade","faobj-8","PRE-SPECIFIED AE","0",NA,NA,"700"
"test-studyid","FA","testusubjid-4615",NA,"eGKO8L","GRADE","Grade","faobj-8","PRE-SPECIFIED AE","0",NA,NA,"900"
"test-studyid","FA","testusubjid-4615",NA,"igSG97","GRADE","Grade","faobj-9","PRE-SPECIFIED AE","0",NA,NA,"1000"
"test-studyid","FA","testusubjid-4615",NA,"iA7daq","GRADE","Grade","faobj-9","PRE-SPECIFIED AE","0",NA,NA,"200"
"test-studyid","FA","testusubjid-4615",NA,"qczxhO","GRADE","Grade","faobj-9","PRE-SPECIFIED AE","0",NA,NA,"400"
"test-studyid","FA","testusubjid-4615",NA,"HIpOwZ","GRADE","Grade","faobj-9","PRE-SPECIFIED AE","0",NA,NA,"600"
"test-studyid","FA","testusubjid-4615",NA,"b7Hz5r","GRADE","Grade","faobj-9","PRE-SPECIFIED AE","0",NA,NA,"700"
"test-studyid","FA","testusubjid-4615",NA,"9FqhAK","GRADE","Grade","faobj-9","PRE-SPECIFIED AE","0",NA,NA,"800"
"test-studyid","FA","testusubjid-4615",NA,"kKTttr","GRADE","Grade","faobj-9","PRE-SPECIFIED AE","0",NA,NA,"900"
"test-studyid","FA","testusubjid-4615",NA,"K2fssO","GRADE","Grade","faobj-10","PRE-SPECIFIED AE","0",NA,NA,"1000"
"test-studyid","FA","testusubjid-4615",NA,"lo35Pe","GRADE","Grade","faobj-10","PRE-SPECIFIED AE","0",NA,NA,"200"
"test-studyid","FA","testusubjid-4615",NA,"LPtDWO","GRADE","Grade","faobj-10","PRE-SPECIFIED AE","0",NA,NA,"400"
"test-studyid","FA","testusubjid-4615",NA,"XaRRcd","GRADE","Grade","faobj-10","PRE-SPECIFIED AE","0",NA,NA,"600"
"test-studyid","FA","testusubjid-4615",NA,"V5HWJr","GRADE","Grade","faobj-10","PRE-SPECIFIED AE","0",NA,NA,"700"
"test-studyid","FA","testusubjid-4615",NA,"95dtDl","GRADE","Grade","faobj-10","PRE-SPECIFIED AE","0",NA,NA,"800"
"test-studyid","FA","testusubjid-4615",NA,"Bw5lJI","GRADE","Grade","faobj-10","PRE-SPECIFIED AE","0",NA,NA,"900"
"test-studyid","FA","testusubjid-4615",NA,"vKFgS3","TRT","Treatment","faobj-11","EXPOSURE","1",NA,"Y","1300"
"test-studyid","FA","testusubjid-1100",NA,"0KSFo9","GRADE","Grade","faobj-3","PRE-SPECIFIED AE","0",NA,NA,"1000"
"test-studyid","FA","testusubjid-1100",NA,"2RjTSL","GRADE","Grade","faobj-3","PRE-SPECIFIED AE","0",NA,NA,"200"
"test-studyid","FA","testusubjid-1100",NA,"ihjfO7","GRADE","Grade","faobj-3","PRE-SPECIFIED AE","0",NA,NA,"400"
"test-studyid","FA","testusubjid-1100",NA,"mFeZzi","GRADE","Grade","faobj-3","PRE-SPECIFIED AE","0",NA,NA,"600"
"test-studyid","FA","testusubjid-1100",NA,"CfTh1J","GRADE","Grade","faobj-3","PRE-SPECIFIED AE","0",NA,NA,"700"
"test-studyid","FA","testusubjid-1100",NA,"77jOQn","GRADE","Grade","faobj-4","PRE-SPECIFIED AE","0",NA,NA,"1000"
"test-studyid","FA","testusubjid-1100",NA,"19bzn1","GRADE","Grade","faobj-4","PRE-SPECIFIED AE","1",NA,NA,"200"
"test-studyid","FA","testusubjid-1100",NA,"n8Uttw","GRADE","Grade","faobj-4","PRE-SPECIFIED AE","1",NA,NA,"400"
"test-studyid","FA","testusubjid-1100",NA,"Pk6QeG","GRADE","Grade","faobj-4","PRE-SPECIFIED AE","0",NA,NA,"600"
"test-studyid","FA","testusubjid-1100",NA,"0P0vtE","GRADE","Grade","faobj-4","PRE-SPECIFIED AE","1",NA,NA,"700"
"test-studyid","FA","testusubjid-1100",NA,"FZXlPx","GRADE","Grade","faobj-5","PRE-SPECIFIED AE","0",NA,NA,"1000"
"test-studyid","FA","testusubjid-1100",NA,"KL0cH5","GRADE","Grade","faobj-5","PRE-SPECIFIED AE","0",NA,NA,"200"
"test-studyid","FA","testusubjid-1100",NA,"tXupQU","GRADE","Grade","faobj-5","PRE-SPECIFIED AE","0",NA,NA,"400"
"test-studyid","FA","testusubjid-1100",NA,"cEHVkT","GRADE","Grade","faobj-5","PRE-SPECIFIED AE","0",NA,NA,"600"
"test-studyid","FA","testusubjid-1100",NA,"XRTvIV","GRADE","Grade","faobj-5","PRE-SPECIFIED AE","0",NA,NA,"700"
"test-studyid","FA","testusubjid-1100",NA,"0zXlkv","GRADE","Grade","faobj-6","PRE-SPECIFIED AE","0",NA,NA,"1000"
"test-studyid","FA","testusubjid-1100",NA,"WXIi3f","GRADE","Grade","faobj-6","PRE-SPECIFIED AE","0",NA,NA,"200"
"test-studyid","FA","testusubjid-1100",NA,"AWTJbe","GRADE","Grade","faobj-6","PRE-SPECIFIED AE","0",NA,NA,"400"
"test-studyid","FA","testusubjid-1100",NA,"wKF21h","GRADE","Grade","faobj-6","PRE-SPECIFIED AE","0",NA,NA,"600"
"test-studyid","FA","testusubjid-1100",NA,"ayxqX8","GRADE","Grade","faobj-6","PRE-SPECIFIED AE","0",NA,NA,"700"
"test-studyid","FA","testusubjid-1100",NA,"Pf5IVW","GRADE","Grade","faobj-7","PRE-SPECIFIED AE","0",NA,NA,"1000"
"test-studyid","FA","testusubjid-1100",NA,"RNPaWs","GRADE","Grade","faobj-7","PRE-SPECIFIED AE","1",NA,NA,"200"
"test-studyid","FA","testusubjid-1100",NA,"auEuTu","GRADE","Grade","faobj-7","PRE-SPECIFIED AE","1",NA,NA,"400"
"test-studyid","FA","testusubjid-1100",NA,"tOlVql","GRADE","Grade","faobj-7","PRE-SPECIFIED AE","0",NA,NA,"600"
"test-studyid","FA","testusubjid-1100",NA,"3wmWi7","GRADE","Grade","faobj-7","PRE-SPECIFIED AE","3",NA,NA,"700"
"test-studyid","FA","testusubjid-1100",NA,"EMXYAM","GRADE","Grade","faobj-8","PRE-SPECIFIED AE","0",NA,NA,"200"
"test-studyid","FA","testusubjid-1100",NA,"LZ53yM","GRADE","Grade","faobj-8","PRE-SPECIFIED AE","0",NA,NA,"400"
"test-studyid","FA","testusubjid-1100",NA,"OTNZuF","GRADE","Grade","faobj-8","PRE-SPECIFIED AE","0",NA,NA,"700"
"test-studyid","FA","testusubjid-1100",NA,"0JGxrZ","GRADE","Grade","faobj-9","PRE-SPECIFIED AE","0",NA,NA,"1000"
"test-studyid","FA","testusubjid-1100",NA,"mH8eh2","GRADE","Grade","faobj-9","PRE-SPECIFIED AE","0",NA,NA,"200"
"test-studyid","FA","testusubjid-1100",NA,"OhV66Q","GRADE","Grade","faobj-9","PRE-SPECIFIED AE","0",NA,NA,"400"
"test-studyid","FA","testusubjid-1100",NA,"53DeJL","GRADE","Grade","faobj-9","PRE-SPECIFIED AE","0",NA,NA,"600"
"test-studyid","FA","testusubjid-1100",NA,"vpTTys","GRADE","Grade","faobj-9","PRE-SPECIFIED AE","0",NA,NA,"700"
"test-studyid","FA","testusubjid-1100",NA,"FJXxh0","GRADE","Grade","faobj-10","PRE-SPECIFIED AE","0",NA,NA,"1000"
"test-studyid","FA","testusubjid-1100",NA,"fWyGou","GRADE","Grade","faobj-10","PRE-SPECIFIED AE","0",NA,NA,"200"
"test-studyid","FA","testusubjid-1100",NA,"HIcLbV","GRADE","Grade","faobj-10","PRE-SPECIFIED AE","0",NA,NA,"400"
"test-studyid","FA","testusubjid-1100",NA,"HfUTSO","GRADE","Grade","faobj-10","PRE-SPECIFIED AE","0",NA,NA,"600"
"test-studyid","FA","testusubjid-1100",NA,"VCxpaw","GRADE","Grade","faobj-10","PRE-SPECIFIED AE","0",NA,NA,"700"
"test-studyid","FA","testusubjid-1100",NA,"CW6xxS","TRT","Treatment","faobj-11","EXPOSURE","1",NA,"Y","1300"
"test-studyid","FA","testusubjid-9940",NA,"wD6NYN","GRADE","Grade","faobj-3","PRE-SPECIFIED AE","0",NA,NA,"1000"
"test-studyid","FA","testusubjid-9940",NA,"SOL907","GRADE","Grade","faobj-3","PRE-SPECIFIED AE","0",NA,NA,"200"
"test-studyid","FA","testusubjid-9940",NA,"oe02hA","GRADE","Grade","faobj-3","PRE-SPECIFIED AE","0",NA,NA,"400"
"test-studyid","FA","testusubjid-9940",NA,"bwn6LH","GRADE","Grade","faobj-3","PRE-SPECIFIED AE","0",NA,NA,"600"
"test-studyid","FA","testusubjid-9940",NA,"7lTwBb","GRADE","Grade","faobj-3","PRE-SPECIFIED AE","0",NA,NA,"700"
"test-studyid","FA","testusubjid-9940",NA,"Fx3Ewc","GRADE","Grade","faobj-3","PRE-SPECIFIED AE","0",NA,NA,"800"
"test-studyid","FA","testusubjid-9940",NA,"Q1YedA","GRADE","Grade","faobj-3","PRE-SPECIFIED AE","0",NA,NA,"900"
"test-studyid","FA","testusubjid-9940",NA,"O93nJm","GRADE","Grade","faobj-4","PRE-SPECIFIED AE","1",NA,NA,"1000"
"test-studyid","FA","testusubjid-9940",NA,"naiSYt","GRADE","Grade","faobj-4","PRE-SPECIFIED AE","0",NA,NA,"200"
"test-studyid","FA","testusubjid-9940",NA,"WdFidI","GRADE","Grade","faobj-4","PRE-SPECIFIED AE","0",NA,NA,"400"
"test-studyid","FA","testusubjid-9940",NA,"IrH0RP","GRADE","Grade","faobj-4","PRE-SPECIFIED AE","0",NA,NA,"600"
"test-studyid","FA","testusubjid-9940",NA,"YfKv0N","GRADE","Grade","faobj-4","PRE-SPECIFIED AE","1",NA,NA,"700"
"test-studyid","FA","testusubjid-9940",NA,"T5UxFw","GRADE","Grade","faobj-4","PRE-SPECIFIED AE","0",NA,NA,"800"
"test-studyid","FA","testusubjid-9940",NA,"fC6uc0","GRADE","Grade","faobj-4","PRE-SPECIFIED AE","0",NA,NA,"900"
"test-studyid","FA","testusubjid-9940",NA,"wUeqRL","GRADE","Grade","faobj-5","PRE-SPECIFIED AE","0",NA,NA,"1000"
"test-studyid","FA","testusubjid-9940",NA,"N6jsbj","GRADE","Grade","faobj-5","PRE-SPECIFIED AE","0",NA,NA,"200"
"test-studyid","FA","testusubjid-9940",NA,"N8HA3O","GRADE","Grade","faobj-5","PRE-SPECIFIED AE","0",NA,NA,"400"
"test-studyid","FA","testusubjid-9940",NA,"Ru3qSq","GRADE","Grade","faobj-5","PRE-SPECIFIED AE","0",NA,NA,"600"
"test-studyid","FA","testusubjid-9940",NA,"V2yza9","GRADE","Grade","faobj-5","PRE-SPECIFIED AE","0",NA,NA,"700"
"test-studyid","FA","testusubjid-9940",NA,"yT4VVm","GRADE","Grade","faobj-5","PRE-SPECIFIED AE","0",NA,NA,"800"
"test-studyid","FA","testusubjid-9940",NA,"PoKyBt","GRADE","Grade","faobj-5","PRE-SPECIFIED AE","0",NA,NA,"900"
"test-studyid","FA","testusubjid-9940",NA,"DiiZgD","GRADE","Grade","faobj-6","PRE-SPECIFIED AE","1",NA,NA,"1000"
"test-studyid","FA","testusubjid-9940",NA,"vVkkYC","GRADE","Grade","faobj-6","PRE-SPECIFIED AE","0",NA,NA,"200"
"test-studyid","FA","testusubjid-9940",NA,"P5hZZr","GRADE","Grade","faobj-6","PRE-SPECIFIED AE","0",NA,NA,"400"
"test-studyid","FA","testusubjid-9940",NA,"DIfJru","GRADE","Grade","faobj-6","PRE-SPECIFIED AE","0",NA,NA,"600"
"test-studyid","FA","testusubjid-9940",NA,"41iTrv","GRADE","Grade","faobj-6","PRE-SPECIFIED AE","4",NA,NA,"700"
"test-studyid","FA","testusubjid-9940",NA,"k1PsGO","GRADE","Grade","faobj-6","PRE-SPECIFIED AE","0",NA,NA,"800"
"test-studyid","FA","testusubjid-9940",NA,"ET3Agx","GRADE","Grade","faobj-6","PRE-SPECIFIED AE","2",NA,NA,"900"
"test-studyid","FA","testusubjid-9940",NA,"tm6ALB","GRADE","Grade","faobj-7","PRE-SPECIFIED AE","1",NA,NA,"1000"
"test-studyid","FA","testusubjid-9940",NA,"qABTdR","GRADE","Grade","faobj-7","PRE-SPECIFIED AE","0",NA,NA,"200"
"test-studyid","FA","testusubjid-9940",NA,"fDLhtg","GRADE","Grade","faobj-7","PRE-SPECIFIED AE","0",NA,NA,"400"
"test-studyid","FA","testusubjid-9940",NA,"fUXCOA","GRADE","Grade","faobj-7","PRE-SPECIFIED AE","0",NA,NA,"600"
"test-studyid","FA","testusubjid-9940",NA,"Ly1xWS","GRADE","Grade","faobj-7","PRE-SPECIFIED AE","0",NA,NA,"700"
"test-studyid","FA","testusubjid-9940",NA,"5gc11i","GRADE","Grade","faobj-7","PRE-SPECIFIED AE","0",NA,NA,"800"
"test-studyid","FA","testusubjid-9940",NA,"akDPYq","GRADE","Grade","faobj-7","PRE-SPECIFIED AE","1",NA,NA,"900"
"test-studyid","FA","testusubjid-9940",NA,"dDfxK0","GRADE","Grade","faobj-8","PRE-SPECIFIED AE","0",NA,NA,"200"
"test-studyid","FA","testusubjid-9940",NA,"dxdhYl","GRADE","Grade","faobj-8","PRE-SPECIFIED AE","0",NA,NA,"400"
"test-studyid","FA","testusubjid-9940",NA,"UvXqBW","GRADE","Grade","faobj-8","PRE-SPECIFIED AE","0",NA,NA,"700"
"test-studyid","FA","testusubjid-9940",NA,"v7yLBq","GRADE","Grade","faobj-8","PRE-SPECIFIED AE","0",NA,NA,"900"
"test-studyid","FA","testusubjid-9940",NA,"GMWajQ","GRADE","Grade","faobj-9","PRE-SPECIFIED AE","0",NA,NA,"1000"
"test-studyid","FA","testusubjid-9940",NA,"0Ama8q","GRADE","Grade","faobj-9","PRE-SPECIFIED AE","0",NA,NA,"200"
"test-studyid","FA","testusubjid-9940",NA,"NSFO5A","GRADE","Grade","faobj-9","PRE-SPECIFIED AE","0",NA,NA,"400"
"test-studyid","FA","testusubjid-9940",NA,"Tu1mUh","GRADE","Grade","faobj-9","PRE-SPECIFIED AE","0",NA,NA,"600"
"test-studyid","FA","testusubjid-9940",NA,"yjELJx","GRADE","Grade","faobj-9","PRE-SPECIFIED AE","0",NA,NA,"700"
"test-studyid","FA","testusubjid-9940",NA,"5WcR7G","GRADE","Grade","faobj-9","PRE-SPECIFIED AE","0",NA,NA,"800"
"test-studyid","FA","testusubjid-9940",NA,"bo2gcX","GRADE","Grade","faobj-9","PRE-SPECIFIED AE","0",NA,NA,"900"
"test-studyid","FA","testusubjid-9940",NA,"OhcytA","GRADE","Grade","faobj-10","PRE-SPECIFIED AE","0",NA,NA,"1000"
"test-studyid","FA","testusubjid-9940",NA,"semO06","GRADE","Grade","faobj-10","PRE-SPECIFIED AE","0",NA,NA,"200"
"test-studyid","FA","testusubjid-9940",NA,"ZhUmvA","GRADE","Grade","faobj-10","PRE-SPECIFIED AE","0",NA,NA,"400"
"test-studyid","FA","testusubjid-9940",NA,"tAq6eE","GRADE","Grade","faobj-10","PRE-SPECIFIED AE","0",NA,NA,"600"
"test-studyid","FA","testusubjid-9940",NA,"FkeLxn","GRADE","Grade","faobj-10","PRE-SPECIFIED AE","0",NA,NA,"700"
"test-studyid","FA","testusubjid-9940",NA,"b6FPG8","GRADE","Grade","faobj-10","PRE-SPECIFIED AE","0",NA,NA,"800"
"test-studyid","FA","testusubjid-9940",NA,"EjsMeV","GRADE","Grade","faobj-10","PRE-SPECIFIED AE","0",NA,NA,"900"
"test-studyid","FA","testusubjid-9940",NA,"fge027","TRT","Treatment","faobj-11","EXPOSURE","1",NA,"Y","1300"
"test-studyid","FA","testusubjid-4163",NA,"r1uayL","GRADE","Grade","faobj-3","PRE-SPECIFIED AE","0",NA,NA,"200"
"test-studyid","FA","testusubjid-4163",NA,"fUup04","GRADE","Grade","faobj-3","PRE-SPECIFIED AE","0",NA,NA,"400"
"test-studyid","FA","testusubjid-4163",NA,"TQqomN","GRADE","Grade","faobj-3","PRE-SPECIFIED AE","0",NA,NA,"600"
"test-studyid","FA","testusubjid-4163",NA,"c0wmxQ","GRADE","Grade","faobj-3","PRE-SPECIFIED AE","0",NA,NA,"700"
"test-studyid","FA","testusubjid-4163",NA,"Ay5eAb","GRADE","Grade","faobj-4","PRE-SPECIFIED AE","0",NA,NA,"200"
"test-studyid","FA","testusubjid-4163",NA,"vwdTDO","GRADE","Grade","faobj-4","PRE-SPECIFIED AE","0",NA,NA,"400"
"test-studyid","FA","testusubjid-4163",NA,"0Cpk0B","GRADE","Grade","faobj-4","PRE-SPECIFIED AE","0",NA,NA,"600"
"test-studyid","FA","testusubjid-4163",NA,"MtJjaU","GRADE","Grade","faobj-4","PRE-SPECIFIED AE","0",NA,NA,"700"
"test-studyid","FA","testusubjid-4163",NA,"MkjaIQ","GRADE","Grade","faobj-5","PRE-SPECIFIED AE","0",NA,NA,"200"
"test-studyid","FA","testusubjid-4163",NA,"PZlCxQ","GRADE","Grade","faobj-5","PRE-SPECIFIED AE","0",NA,NA,"400"
"test-studyid","FA","testusubjid-4163",NA,"ymDw3r","GRADE","Grade","faobj-5","PRE-SPECIFIED AE","0",NA,NA,"600"
"test-studyid","FA","testusubjid-4163",NA,"YpcCcJ","GRADE","Grade","faobj-5","PRE-SPECIFIED AE","0",NA,NA,"700"
"test-studyid","FA","testusubjid-4163",NA,"oZ5rFI","GRADE","Grade","faobj-6","PRE-SPECIFIED AE","0",NA,NA,"200"
"test-studyid","FA","testusubjid-4163",NA,"DggalB","GRADE","Grade","faobj-6","PRE-SPECIFIED AE","0",NA,NA,"400"
"test-studyid","FA","testusubjid-4163",NA,"chCHFu","GRADE","Grade","faobj-6","PRE-SPECIFIED AE","0",NA,NA,"600"
"test-studyid","FA","testusubjid-4163",NA,"QPuX7d","GRADE","Grade","faobj-6","PRE-SPECIFIED AE","0",NA,NA,"700"
"test-studyid","FA","testusubjid-4163",NA,"5D6ail","GRADE","Grade","faobj-7","PRE-SPECIFIED AE","0",NA,NA,"200"
"test-studyid","FA","testusubjid-4163",NA,"Ul6pCK","GRADE","Grade","faobj-7","PRE-SPECIFIED AE","0",NA,NA,"400"
"test-studyid","FA","testusubjid-4163",NA,"crH55p","GRADE","Grade","faobj-7","PRE-SPECIFIED AE","0",NA,NA,"600"
"test-studyid","FA","testusubjid-4163",NA,"Zuble0","GRADE","Grade","faobj-7","PRE-SPECIFIED AE","0",NA,NA,"700"
"test-studyid","FA","testusubjid-4163",NA,"PTxfYx","GRADE","Grade","faobj-8","PRE-SPECIFIED AE","0",NA,NA,"200"
"test-studyid","FA","testusubjid-4163",NA,"sevqfx","GRADE","Grade","faobj-8","PRE-SPECIFIED AE","0",NA,NA,"400"
"test-studyid","FA","testusubjid-4163",NA,"Q5QMNd","GRADE","Grade","faobj-8","PRE-SPECIFIED AE","0",NA,NA,"700"
"test-studyid","FA","testusubjid-4163",NA,"qhflaW","GRADE","Grade","faobj-9","PRE-SPECIFIED AE","0",NA,NA,"200"
"test-studyid","FA","testusubjid-4163",NA,"bzLtjf","GRADE","Grade","faobj-9","PRE-SPECIFIED AE","0",NA,NA,"400"
"test-studyid","FA","testusubjid-4163",NA,"AFKNrj","GRADE","Grade","faobj-9","PRE-SPECIFIED AE","0",NA,NA,"600"
"test-studyid","FA","testusubjid-4163",NA,"9dlD1L","GRADE","Grade","faobj-9","PRE-SPECIFIED AE","0",NA,NA,"700"
"test-studyid","FA","testusubjid-4163",NA,"80Fmkd","GRADE","Grade","faobj-10","PRE-SPECIFIED AE","0",NA,NA,"200"
"test-studyid","FA","testusubjid-4163",NA,"6U6k1t","GRADE","Grade","faobj-10","PRE-SPECIFIED AE","0",NA,NA,"400"
"test-studyid","FA","testusubjid-4163",NA,"smESOt","GRADE","Grade","faobj-10","PRE-SPECIFIED AE","0",NA,NA,"600"
"test-studyid","FA","testusubjid-4163",NA,"LeR63x","GRADE","Grade","faobj-10","PRE-SPECIFIED AE","0",NA,NA,"700"
"test-studyid","FA","testusubjid-4163",NA,"bMDq0s","TRT","Treatment","faobj-11","EXPOSURE","1",NA,"Y","1300"
"test-studyid","FA","testusubjid-4648",NA,"EC4ked","GRADE","Grade","faobj-3","PRE-SPECIFIED AE","0",NA,NA,"200"
"test-studyid","FA","testusubjid-4648",NA,"y4JYv3","GRADE","Grade","faobj-3","PRE-SPECIFIED AE","0",NA,NA,"400"
"test-studyid","FA","testusubjid-4648",NA,"rkyHlm","GRADE","Grade","faobj-4","PRE-SPECIFIED AE","0",NA,NA,"200"
"test-studyid","FA","testusubjid-4648",NA,"LtAL6a","GRADE","Grade","faobj-4","PRE-SPECIFIED AE","0",NA,NA,"400"
"test-studyid","FA","testusubjid-4648",NA,"iSjgfA","GRADE","Grade","faobj-5","PRE-SPECIFIED AE","0",NA,NA,"200"
"test-studyid","FA","testusubjid-4648",NA,"EIAj2i","GRADE","Grade","faobj-5","PRE-SPECIFIED AE","0",NA,NA,"400"
"test-studyid","FA","testusubjid-4648",NA,"57d21I","GRADE","Grade","faobj-6","PRE-SPECIFIED AE","1",NA,NA,"200"
"test-studyid","FA","testusubjid-4648",NA,"YFphLv","GRADE","Grade","faobj-6","PRE-SPECIFIED AE","2",NA,NA,"400"
"test-studyid","FA","testusubjid-4648",NA,"qLESAF","GRADE","Grade","faobj-7","PRE-SPECIFIED AE","0",NA,NA,"200"
"test-studyid","FA","testusubjid-4648",NA,"EJd2Lt","GRADE","Grade","faobj-7","PRE-SPECIFIED AE","0",NA,NA,"400"
"test-studyid","FA","testusubjid-4648",NA,"vqi17D","GRADE","Grade","faobj-8","PRE-SPECIFIED AE","0",NA,NA,"200"
"test-studyid","FA","testusubjid-4648",NA,"0o1y7M","GRADE","Grade","faobj-8","PRE-SPECIFIED AE","0",NA,NA,"400"
"test-studyid","FA","testusubjid-4648",NA,"gVrSPF","GRADE","Grade","faobj-9","PRE-SPECIFIED AE","0",NA,NA,"200"
"test-studyid","FA","testusubjid-4648",NA,"H18cW1","GRADE","Grade","faobj-9","PRE-SPECIFIED AE","0",NA,NA,"400"
"test-studyid","FA","testusubjid-4648",NA,"g86cEN","GRADE","Grade","faobj-10","PRE-SPECIFIED AE","0",NA,NA,"200"
"test-studyid","FA","testusubjid-4648",NA,"3fxp3y","GRADE","Grade","faobj-10","PRE-SPECIFIED AE","0",NA,NA,"400"
"test-studyid","FA","testusubjid-2609",NA,"gDN6Mc","GRADE","Grade","faobj-3","PRE-SPECIFIED AE","0",NA,NA,"1000"
"test-studyid","FA","testusubjid-2609",NA,"jN44Sy","GRADE","Grade","faobj-3","PRE-SPECIFIED AE","0",NA,NA,"200"
"test-studyid","FA","testusubjid-2609",NA,"izq2wE","GRADE","Grade","faobj-3","PRE-SPECIFIED AE","0",NA,NA,"400"
"test-studyid","FA","testusubjid-2609",NA,"ZUjOgJ","GRADE","Grade","faobj-3","PRE-SPECIFIED AE","0",NA,NA,"600"
"test-studyid","FA","testusubjid-2609",NA,"NO4siw","GRADE","Grade","faobj-3","PRE-SPECIFIED AE","0",NA,NA,"700"
"test-studyid","FA","testusubjid-2609",NA,"x4bkc4","GRADE","Grade","faobj-3","PRE-SPECIFIED AE","0",NA,NA,"800"
"test-studyid","FA","testusubjid-2609",NA,"Cals2T","GRADE","Grade","faobj-3","PRE-SPECIFIED AE","0",NA,NA,"900"
"test-studyid","FA","testusubjid-2609",NA,"cAY3kJ","GRADE","Grade","faobj-4","PRE-SPECIFIED AE","0",NA,NA,"1000"
"test-studyid","FA","testusubjid-2609",NA,"qOvV1E","GRADE","Grade","faobj-4","PRE-SPECIFIED AE","1",NA,NA,"200"
"test-studyid","FA","testusubjid-2609",NA,"zxuXhq","GRADE","Grade","faobj-4","PRE-SPECIFIED AE","1",NA,NA,"400"
"test-studyid","FA","testusubjid-2609",NA,"gpE88q","GRADE","Grade","faobj-4","PRE-SPECIFIED AE","0",NA,NA,"600"
"test-studyid","FA","testusubjid-2609",NA,"u629A7","GRADE","Grade","faobj-4","PRE-SPECIFIED AE","4",NA,NA,"700"
"test-studyid","FA","testusubjid-2609",NA,"LUbeGF","GRADE","Grade","faobj-4","PRE-SPECIFIED AE","0",NA,NA,"800"
"test-studyid","FA","testusubjid-2609",NA,"tfMvoL","GRADE","Grade","faobj-4","PRE-SPECIFIED AE","3",NA,NA,"900"
"test-studyid","FA","testusubjid-2609",NA,"8NEK4K","GRADE","Grade","faobj-5","PRE-SPECIFIED AE","0",NA,NA,"1000"
"test-studyid","FA","testusubjid-2609",NA,"5COR0H","GRADE","Grade","faobj-5","PRE-SPECIFIED AE","0",NA,NA,"200"
"test-studyid","FA","testusubjid-2609",NA,"fTIqCq","GRADE","Grade","faobj-5","PRE-SPECIFIED AE","0",NA,NA,"400"
"test-studyid","FA","testusubjid-2609",NA,"uUrjiN","GRADE","Grade","faobj-5","PRE-SPECIFIED AE","0",NA,NA,"600"
"test-studyid","FA","testusubjid-2609",NA,"ossKcY","GRADE","Grade","faobj-5","PRE-SPECIFIED AE","0",NA,NA,"700"
"test-studyid","FA","testusubjid-2609",NA,"WAEvR9","GRADE","Grade","faobj-5","PRE-SPECIFIED AE","0",NA,NA,"800"
"test-studyid","FA","testusubjid-2609",NA,"v4ohmP","GRADE","Grade","faobj-5","PRE-SPECIFIED AE","0",NA,NA,"900"
"test-studyid","FA","testusubjid-2609",NA,"otm8i5","GRADE","Grade","faobj-6","PRE-SPECIFIED AE","0",NA,NA,"1000"
"test-studyid","FA","testusubjid-2609",NA,"1nWytj","GRADE","Grade","faobj-6","PRE-SPECIFIED AE","1",NA,NA,"200"
"test-studyid","FA","testusubjid-2609",NA,"tJXitr","GRADE","Grade","faobj-6","PRE-SPECIFIED AE","1",NA,NA,"400"
"test-studyid","FA","testusubjid-2609",NA,"YefoQz","GRADE","Grade","faobj-6","PRE-SPECIFIED AE","0",NA,NA,"600"
"test-studyid","FA","testusubjid-2609",NA,"OQHNTW","GRADE","Grade","faobj-6","PRE-SPECIFIED AE","0",NA,NA,"700"
"test-studyid","FA","testusubjid-2609",NA,"ViHZI5","GRADE","Grade","faobj-6","PRE-SPECIFIED AE","0",NA,NA,"800"
"test-studyid","FA","testusubjid-2609",NA,"PANRlh","GRADE","Grade","faobj-6","PRE-SPECIFIED AE","0",NA,NA,"900"
"test-studyid","FA","testusubjid-2609",NA,"7Nel75","GRADE","Grade","faobj-7","PRE-SPECIFIED AE","0",NA,NA,"1000"
"test-studyid","FA","testusubjid-2609",NA,"pKbdBx","GRADE","Grade","faobj-7","PRE-SPECIFIED AE","3",NA,NA,"200"
"test-studyid","FA","testusubjid-2609",NA,"fzpYc9","GRADE","Grade","faobj-7","PRE-SPECIFIED AE","3",NA,NA,"400"
"test-studyid","FA","testusubjid-2609",NA,"oUtNmj","GRADE","Grade","faobj-7","PRE-SPECIFIED AE","0",NA,NA,"600"
"test-studyid","FA","testusubjid-2609",NA,"VEEEMY","GRADE","Grade","faobj-7","PRE-SPECIFIED AE","4",NA,NA,"700"
"test-studyid","FA","testusubjid-2609",NA,"2ECj30","GRADE","Grade","faobj-7","PRE-SPECIFIED AE","0",NA,NA,"800"
"test-studyid","FA","testusubjid-2609",NA,"fneqzz","GRADE","Grade","faobj-7","PRE-SPECIFIED AE","3",NA,NA,"900"
"test-studyid","FA","testusubjid-2609",NA,"Nc3HdJ","GRADE","Grade","faobj-8","PRE-SPECIFIED AE","0",NA,NA,"200"
"test-studyid","FA","testusubjid-2609",NA,"cCapTR","GRADE","Grade","faobj-8","PRE-SPECIFIED AE","0",NA,NA,"400"
"test-studyid","FA","testusubjid-2609",NA,"W2zfdy","GRADE","Grade","faobj-8","PRE-SPECIFIED AE","0",NA,NA,"700"
"test-studyid","FA","testusubjid-2609",NA,"Xwegem","GRADE","Grade","faobj-8","PRE-SPECIFIED AE","0",NA,NA,"900"
"test-studyid","FA","testusubjid-2609",NA,"2qeNPq","GRADE","Grade","faobj-9","PRE-SPECIFIED AE","0",NA,NA,"1000"
"test-studyid","FA","testusubjid-2609",NA,"56ija1","GRADE","Grade","faobj-9","PRE-SPECIFIED AE","0",NA,NA,"200"
"test-studyid","FA","testusubjid-2609",NA,"neGmpi","GRADE","Grade","faobj-9","PRE-SPECIFIED AE","0",NA,NA,"400"
"test-studyid","FA","testusubjid-2609",NA,"BiWb5K","GRADE","Grade","faobj-9","PRE-SPECIFIED AE","0",NA,NA,"600"
"test-studyid","FA","testusubjid-2609",NA,"SU5bTH","GRADE","Grade","faobj-9","PRE-SPECIFIED AE","0",NA,NA,"700"
"test-studyid","FA","testusubjid-2609",NA,"jmLcdu","GRADE","Grade","faobj-9","PRE-SPECIFIED AE","0",NA,NA,"800"
"test-studyid","FA","testusubjid-2609",NA,"csTs2U","GRADE","Grade","faobj-9","PRE-SPECIFIED AE","0",NA,NA,"900"
"test-studyid","FA","testusubjid-2609",NA,"r1lSYZ","GRADE","Grade","faobj-10","PRE-SPECIFIED AE","0",NA,NA,"1000"
"test-studyid","FA","testusubjid-2609",NA,"2rypdJ","GRADE","Grade","faobj-10","PRE-SPECIFIED AE","0",NA,NA,"200"
"test-studyid","FA","testusubjid-2609",NA,"iQusUj","GRADE","Grade","faobj-10","PRE-SPECIFIED AE","0",NA,NA,"400"
"test-studyid","FA","testusubjid-2609",NA,"e5megg","GRADE","Grade","faobj-10","PRE-SPECIFIED AE","0",NA,NA,"600"
"test-studyid","FA","testusubjid-2609",NA,"P9kwqg","GRADE","Grade","faobj-10","PRE-SPECIFIED AE","0",NA,NA,"700"
"test-studyid","FA","testusubjid-2609",NA,"q0Fg1d","GRADE","Grade","faobj-10","PRE-SPECIFIED AE","0",NA,NA,"800"
"test-studyid","FA","testusubjid-2609",NA,"XCJBRO","GRADE","Grade","faobj-10","PRE-SPECIFIED AE","0",NA,NA,"900"
"test-studyid","FA","testusubjid-2609",NA,"mtatRv","TRT","Treatment","faobj-11","EXPOSURE","1",NA,"Y","1300"
"test-studyid","FA","testusubjid-6063",NA,"6P9u6L","GRADE","Grade","faobj-3","PRE-SPECIFIED AE","0",NA,NA,"1000"
"test-studyid","FA","testusubjid-6063",NA,"Vx0QtN","GRADE","Grade","faobj-3","PRE-SPECIFIED AE","0",NA,NA,"200"
"test-studyid","FA","testusubjid-6063",NA,"rx07n7","GRADE","Grade","faobj-3","PRE-SPECIFIED AE","0",NA,NA,"400"
"test-studyid","FA","testusubjid-6063",NA,"NtuDsy","GRADE","Grade","faobj-3","PRE-SPECIFIED AE","0",NA,NA,"600"
"test-studyid","FA","testusubjid-6063",NA,"KpXpqw","GRADE","Grade","faobj-3","PRE-SPECIFIED AE","0",NA,NA,"700"
"test-studyid","FA","testusubjid-6063",NA,"aq9ZRH","GRADE","Grade","faobj-3","PRE-SPECIFIED AE","0",NA,NA,"800"
"test-studyid","FA","testusubjid-6063",NA,"9oB1nA","GRADE","Grade","faobj-3","PRE-SPECIFIED AE","0",NA,NA,"900"
"test-studyid","FA","testusubjid-6063",NA,"DdNBO7","GRADE","Grade","faobj-4","PRE-SPECIFIED AE","0",NA,NA,"1000"
"test-studyid","FA","testusubjid-6063",NA,"5yOlnk","GRADE","Grade","faobj-4","PRE-SPECIFIED AE","0",NA,NA,"200"
"test-studyid","FA","testusubjid-6063",NA,"5mNbsA","GRADE","Grade","faobj-4","PRE-SPECIFIED AE","0",NA,NA,"400"
"test-studyid","FA","testusubjid-6063",NA,"OwJdnC","GRADE","Grade","faobj-4","PRE-SPECIFIED AE","0",NA,NA,"600"
"test-studyid","FA","testusubjid-6063",NA,"1Ol6vd","GRADE","Grade","faobj-4","PRE-SPECIFIED AE","0",NA,NA,"700"
"test-studyid","FA","testusubjid-6063",NA,"JcliTa","GRADE","Grade","faobj-4","PRE-SPECIFIED AE","0",NA,NA,"800"
"test-studyid","FA","testusubjid-6063",NA,"3Ds4Yq","GRADE","Grade","faobj-4","PRE-SPECIFIED AE","0",NA,NA,"900"
"test-studyid","FA","testusubjid-6063",NA,"iOrheZ","GRADE","Grade","faobj-5","PRE-SPECIFIED AE","0",NA,NA,"1000"
"test-studyid","FA","testusubjid-6063",NA,"XHPCdi","GRADE","Grade","faobj-5","PRE-SPECIFIED AE","0",NA,NA,"200"
"test-studyid","FA","testusubjid-6063",NA,"Pvi9Bi","GRADE","Grade","faobj-5","PRE-SPECIFIED AE","0",NA,NA,"400"
"test-studyid","FA","testusubjid-6063",NA,"OS8iPd","GRADE","Grade","faobj-5","PRE-SPECIFIED AE","0",NA,NA,"600"
"test-studyid","FA","testusubjid-6063",NA,"cDX2Fz","GRADE","Grade","faobj-5","PRE-SPECIFIED AE","0",NA,NA,"700"
"test-studyid","FA","testusubjid-6063",NA,"w9VxFy","GRADE","Grade","faobj-5","PRE-SPECIFIED AE","0",NA,NA,"800"
"test-studyid","FA","testusubjid-6063",NA,"neEgCY","GRADE","Grade","faobj-5","PRE-SPECIFIED AE","0",NA,NA,"900"
"test-studyid","FA","testusubjid-6063",NA,"WIyjyj","GRADE","Grade","faobj-6","PRE-SPECIFIED AE","0",NA,NA,"1000"
"test-studyid","FA","testusubjid-6063",NA,"OMXuh4","GRADE","Grade","faobj-6","PRE-SPECIFIED AE","4",NA,NA,"200"
"test-studyid","FA","testusubjid-6063",NA,"EAGQ29","GRADE","Grade","faobj-6","PRE-SPECIFIED AE","0",NA,NA,"400"
"test-studyid","FA","testusubjid-6063",NA,"R76VLy","GRADE","Grade","faobj-6","PRE-SPECIFIED AE","0",NA,NA,"600"
"test-studyid","FA","testusubjid-6063",NA,"5vuYE3","GRADE","Grade","faobj-6","PRE-SPECIFIED AE","4",NA,NA,"700"
"test-studyid","FA","testusubjid-6063",NA,"rslNYf","GRADE","Grade","faobj-6","PRE-SPECIFIED AE","0",NA,NA,"800"
"test-studyid","FA","testusubjid-6063",NA,"4N9ddW","GRADE","Grade","faobj-6","PRE-SPECIFIED AE","4",NA,NA,"900"
"test-studyid","FA","testusubjid-6063",NA,"HnPR5K","GRADE","Grade","faobj-7","PRE-SPECIFIED AE","1",NA,NA,"1000"
"test-studyid","FA","testusubjid-6063",NA,"22pV8V","GRADE","Grade","faobj-7","PRE-SPECIFIED AE","1",NA,NA,"200"
"test-studyid","FA","testusubjid-6063",NA,"8Py5ps","GRADE","Grade","faobj-7","PRE-SPECIFIED AE","0",NA,NA,"400"
"test-studyid","FA","testusubjid-6063",NA,"0VHAtf","GRADE","Grade","faobj-7","PRE-SPECIFIED AE","0",NA,NA,"600"
"test-studyid","FA","testusubjid-6063",NA,"KryyHV","GRADE","Grade","faobj-7","PRE-SPECIFIED AE","2",NA,NA,"700"
"test-studyid","FA","testusubjid-6063",NA,"6zeROq","GRADE","Grade","faobj-7","PRE-SPECIFIED AE","0",NA,NA,"800"
"test-studyid","FA","testusubjid-6063",NA,"M4XrJ7","GRADE","Grade","faobj-7","PRE-SPECIFIED AE","1",NA,NA,"900"
"test-studyid","FA","testusubjid-6063",NA,"6N5Lh1","GRADE","Grade","faobj-8","PRE-SPECIFIED AE","0",NA,NA,"200"
"test-studyid","FA","testusubjid-6063",NA,"NicCXN","GRADE","Grade","faobj-8","PRE-SPECIFIED AE","0",NA,NA,"400"
"test-studyid","FA","testusubjid-6063",NA,"ZjyB35","GRADE","Grade","faobj-8","PRE-SPECIFIED AE","0",NA,NA,"700"
"test-studyid","FA","testusubjid-6063",NA,"BPBaKs","GRADE","Grade","faobj-8","PRE-SPECIFIED AE","0",NA,NA,"900"
"test-studyid","FA","testusubjid-6063",NA,"z87q32","GRADE","Grade","faobj-9","PRE-SPECIFIED AE","0",NA,NA,"1000"
"test-studyid","FA","testusubjid-6063",NA,"NzDLBd","GRADE","Grade","faobj-9","PRE-SPECIFIED AE","0",NA,NA,"200"
"test-studyid","FA","testusubjid-6063",NA,"0uuVaI","GRADE","Grade","faobj-9","PRE-SPECIFIED AE","0",NA,NA,"400"
"test-studyid","FA","testusubjid-6063",NA,"DjzvvV","GRADE","Grade","faobj-9","PRE-SPECIFIED AE","0",NA,NA,"600"
"test-studyid","FA","testusubjid-6063",NA,"AVRrtu","GRADE","Grade","faobj-9","PRE-SPECIFIED AE","0",NA,NA,"700"
"test-studyid","FA","testusubjid-6063",NA,"lDLJFV","GRADE","Grade","faobj-9","PRE-SPECIFIED AE","0",NA,NA,"800"
"test-studyid","FA","testusubjid-6063",NA,"bLmL6q","GRADE","Grade","faobj-9","PRE-SPECIFIED AE","0",NA,NA,"900"
"test-studyid","FA","testusubjid-6063",NA,"5VCyW8","GRADE","Grade","faobj-10","PRE-SPECIFIED AE","0",NA,NA,"1000"
"test-studyid","FA","testusubjid-6063",NA,"kv2LZ8","GRADE","Grade","faobj-10","PRE-SPECIFIED AE","0",NA,NA,"200"
"test-studyid","FA","testusubjid-6063",NA,"WPrdZx","GRADE","Grade","faobj-10","PRE-SPECIFIED AE","0",NA,NA,"400"
"test-studyid","FA","testusubjid-6063",NA,"Y2JyBU","GRADE","Grade","faobj-10","PRE-SPECIFIED AE","0",NA,NA,"600"
"test-studyid","FA","testusubjid-6063",NA,"0YvjMm","GRADE","Grade","faobj-10","PRE-SPECIFIED AE","0",NA,NA,"700"
"test-studyid","FA","testusubjid-6063",NA,"PRfMhb","GRADE","Grade","faobj-10","PRE-SPECIFIED AE","0",NA,NA,"800"
"test-studyid","FA","testusubjid-6063",NA,"89ghNE","GRADE","Grade","faobj-10","PRE-SPECIFIED AE","0",NA,NA,"900"
"test-studyid","FA","testusubjid-6063",NA,"UWRHDp","TRT","Treatment","faobj-11","EXPOSURE","1",NA,"Y","1300"
"test-studyid","FA","testusubjid-2455",NA,"kRIgIg","GRADE","Grade","faobj-3","PRE-SPECIFIED AE","0",NA,NA,"1000"
"test-studyid","FA","testusubjid-2455",NA,"4WDWwd","GRADE","Grade","faobj-3","PRE-SPECIFIED AE","0",NA,NA,"200"
"test-studyid","FA","testusubjid-2455",NA,"0KW9Im","GRADE","Grade","faobj-3","PRE-SPECIFIED AE","0",NA,NA,"400"
"test-studyid","FA","testusubjid-2455",NA,"cdrzqo","GRADE","Grade","faobj-3","PRE-SPECIFIED AE","0",NA,NA,"600"
"test-studyid","FA","testusubjid-2455",NA,"Edcy4w","GRADE","Grade","faobj-3","PRE-SPECIFIED AE","0",NA,NA,"700"
"test-studyid","FA","testusubjid-2455",NA,"Y238sL","GRADE","Grade","faobj-4","PRE-SPECIFIED AE","0",NA,NA,"1000"
"test-studyid","FA","testusubjid-2455",NA,"YzjrIp","GRADE","Grade","faobj-4","PRE-SPECIFIED AE","0",NA,NA,"200"
"test-studyid","FA","testusubjid-2455",NA,"3U1okm","GRADE","Grade","faobj-4","PRE-SPECIFIED AE","0",NA,NA,"400"
"test-studyid","FA","testusubjid-2455",NA,"44o51h","GRADE","Grade","faobj-4","PRE-SPECIFIED AE","0",NA,NA,"600"
"test-studyid","FA","testusubjid-2455",NA,"Z1okLi","GRADE","Grade","faobj-4","PRE-SPECIFIED AE","1",NA,NA,"700"
"test-studyid","FA","testusubjid-2455",NA,"kzQOmx","GRADE","Grade","faobj-5","PRE-SPECIFIED AE","0",NA,NA,"1000"
"test-studyid","FA","testusubjid-2455",NA,"y2ghq9","GRADE","Grade","faobj-5","PRE-SPECIFIED AE","0",NA,NA,"200"
"test-studyid","FA","testusubjid-2455",NA,"bsoVkO","GRADE","Grade","faobj-5","PRE-SPECIFIED AE","0",NA,NA,"400"
"test-studyid","FA","testusubjid-2455",NA,"jXOD7H","GRADE","Grade","faobj-5","PRE-SPECIFIED AE","0",NA,NA,"600"
"test-studyid","FA","testusubjid-2455",NA,"3P8rBo","GRADE","Grade","faobj-5","PRE-SPECIFIED AE","0",NA,NA,"700"
"test-studyid","FA","testusubjid-2455",NA,"2rV7dC","GRADE","Grade","faobj-6","PRE-SPECIFIED AE","0",NA,NA,"1000"
"test-studyid","FA","testusubjid-2455",NA,"0yaDxS","GRADE","Grade","faobj-6","PRE-SPECIFIED AE","0",NA,NA,"200"
"test-studyid","FA","testusubjid-2455",NA,"QEhUCH","GRADE","Grade","faobj-6","PRE-SPECIFIED AE","0",NA,NA,"400"
"test-studyid","FA","testusubjid-2455",NA,"eVmxJl","GRADE","Grade","faobj-6","PRE-SPECIFIED AE","0",NA,NA,"600"
"test-studyid","FA","testusubjid-2455",NA,"C0xCkq","GRADE","Grade","faobj-6","PRE-SPECIFIED AE","0",NA,NA,"700"
"test-studyid","FA","testusubjid-2455",NA,"WzJ1Mg","GRADE","Grade","faobj-7","PRE-SPECIFIED AE","0",NA,NA,"1000"
"test-studyid","FA","testusubjid-2455",NA,"Ztp12Y","GRADE","Grade","faobj-7","PRE-SPECIFIED AE","0",NA,NA,"200"
"test-studyid","FA","testusubjid-2455",NA,"yQXKaj","GRADE","Grade","faobj-7","PRE-SPECIFIED AE","0",NA,NA,"400"
"test-studyid","FA","testusubjid-2455",NA,"pY736A","GRADE","Grade","faobj-7","PRE-SPECIFIED AE","0",NA,NA,"600"
"test-studyid","FA","testusubjid-2455",NA,"g2rdZf","GRADE","Grade","faobj-7","PRE-SPECIFIED AE","3",NA,NA,"700"
"test-studyid","FA","testusubjid-2455",NA,"OPhaHW","GRADE","Grade","faobj-8","PRE-SPECIFIED AE","0",NA,NA,"200"
"test-studyid","FA","testusubjid-2455",NA,"YMABlG","GRADE","Grade","faobj-8","PRE-SPECIFIED AE","0",NA,NA,"400"
"test-studyid","FA","testusubjid-2455",NA,"rDNK9m","GRADE","Grade","faobj-8","PRE-SPECIFIED AE","0",NA,NA,"700"
"test-studyid","FA","testusubjid-2455",NA,"JRQf2X","GRADE","Grade","faobj-9","PRE-SPECIFIED AE","0",NA,NA,"1000"
"test-studyid","FA","testusubjid-2455",NA,"BUMNH2","GRADE","Grade","faobj-9","PRE-SPECIFIED AE","0",NA,NA,"200"
"test-studyid","FA","testusubjid-2455",NA,"VlzVaZ","GRADE","Grade","faobj-9","PRE-SPECIFIED AE","0",NA,NA,"400"
"test-studyid","FA","testusubjid-2455",NA,"4HJZ1O","GRADE","Grade","faobj-9","PRE-SPECIFIED AE","0",NA,NA,"600"
"test-studyid","FA","testusubjid-2455",NA,"bJZC2m","GRADE","Grade","faobj-9","PRE-SPECIFIED AE","0",NA,NA,"700"
"test-studyid","FA","testusubjid-2455",NA,"snXeVx","GRADE","Grade","faobj-10","PRE-SPECIFIED AE","0",NA,NA,"1000"
"test-studyid","FA","testusubjid-2455",NA,"RVH0np","GRADE","Grade","faobj-10","PRE-SPECIFIED AE","0",NA,NA,"200"
"test-studyid","FA","testusubjid-2455",NA,"FpkQQP","GRADE","Grade","faobj-10","PRE-SPECIFIED AE","0",NA,NA,"400"
"test-studyid","FA","testusubjid-2455",NA,"ECWWs4","GRADE","Grade","faobj-10","PRE-SPECIFIED AE","0",NA,NA,"600"
"test-studyid","FA","testusubjid-2455",NA,"Ad9nZc","GRADE","Grade","faobj-10","PRE-SPECIFIED AE","0",NA,NA,"700"
"test-studyid","FA","testusubjid-2455",NA,"k2jX93","TRT","Treatment","faobj-11","EXPOSURE","1",NA,"Y","1300"
"test-studyid","FA","testusubjid-7205",NA,"66oFjx","GRADE","Grade","faobj-3","PRE-SPECIFIED AE","0",NA,NA,"200"
"test-studyid","FA","testusubjid-7205",NA,"flUSHn","GRADE","Grade","faobj-3","PRE-SPECIFIED AE","0",NA,NA,"400"
"test-studyid","FA","testusubjid-7205",NA,"jGLvsF","GRADE","Grade","faobj-3","PRE-SPECIFIED AE","0",NA,NA,"600"
"test-studyid","FA","testusubjid-7205",NA,"Vd6tQ7","GRADE","Grade","faobj-3","PRE-SPECIFIED AE","0",NA,NA,"700"
"test-studyid","FA","testusubjid-7205",NA,"FMbRvk","GRADE","Grade","faobj-4","PRE-SPECIFIED AE","0",NA,NA,"200"
"test-studyid","FA","testusubjid-7205",NA,"B7MmGd","GRADE","Grade","faobj-4","PRE-SPECIFIED AE","0",NA,NA,"400"
"test-studyid","FA","testusubjid-7205",NA,"WgkVWS","GRADE","Grade","faobj-4","PRE-SPECIFIED AE","0",NA,NA,"600"
"test-studyid","FA","testusubjid-7205",NA,"tOE1nb","GRADE","Grade","faobj-4","PRE-SPECIFIED AE","1",NA,NA,"700"
"test-studyid","FA","testusubjid-7205",NA,"9eSxFW","GRADE","Grade","faobj-5","PRE-SPECIFIED AE","0",NA,NA,"200"
"test-studyid","FA","testusubjid-7205",NA,"ShsKi1","GRADE","Grade","faobj-5","PRE-SPECIFIED AE","0",NA,NA,"400"
"test-studyid","FA","testusubjid-7205",NA,"gUdBMD","GRADE","Grade","faobj-5","PRE-SPECIFIED AE","0",NA,NA,"600"
"test-studyid","FA","testusubjid-7205",NA,"qgOFIM","GRADE","Grade","faobj-5","PRE-SPECIFIED AE","0",NA,NA,"700"
"test-studyid","FA","testusubjid-7205",NA,"JydCC8","GRADE","Grade","faobj-6","PRE-SPECIFIED AE","0",NA,NA,"200"
"test-studyid","FA","testusubjid-7205",NA,"cfD7WB","GRADE","Grade","faobj-6","PRE-SPECIFIED AE","0",NA,NA,"400"
"test-studyid","FA","testusubjid-7205",NA,"b1vJh5","GRADE","Grade","faobj-6","PRE-SPECIFIED AE","0",NA,NA,"600"
"test-studyid","FA","testusubjid-7205",NA,"FT96nH","GRADE","Grade","faobj-6","PRE-SPECIFIED AE","0",NA,NA,"700"
"test-studyid","FA","testusubjid-7205",NA,"HfolXd","GRADE","Grade","faobj-7","PRE-SPECIFIED AE","0",NA,NA,"200"
"test-studyid","FA","testusubjid-7205",NA,"Haao9d","GRADE","Grade","faobj-7","PRE-SPECIFIED AE","2",NA,NA,"400"
"test-studyid","FA","testusubjid-7205",NA,"vO62bJ","GRADE","Grade","faobj-7","PRE-SPECIFIED AE","1",NA,NA,"600"
"test-studyid","FA","testusubjid-7205",NA,"z84nYy","GRADE","Grade","faobj-7","PRE-SPECIFIED AE","3",NA,NA,"700"
"test-studyid","FA","testusubjid-7205",NA,"KuJn8q","GRADE","Grade","faobj-8","PRE-SPECIFIED AE","0",NA,NA,"200"
"test-studyid","FA","testusubjid-7205",NA,"H3Chno","GRADE","Grade","faobj-8","PRE-SPECIFIED AE","0",NA,NA,"400"
"test-studyid","FA","testusubjid-7205",NA,"ib9C0W","GRADE","Grade","faobj-8","PRE-SPECIFIED AE","0",NA,NA,"700"
"test-studyid","FA","testusubjid-7205",NA,"cNRtRO","GRADE","Grade","faobj-9","PRE-SPECIFIED AE","0",NA,NA,"200"
"test-studyid","FA","testusubjid-7205",NA,"zXk5Q4","GRADE","Grade","faobj-9","PRE-SPECIFIED AE","0",NA,NA,"400"
"test-studyid","FA","testusubjid-7205",NA,"3FbySA","GRADE","Grade","faobj-9","PRE-SPECIFIED AE","0",NA,NA,"600"
"test-studyid","FA","testusubjid-7205",NA,"YYR93M","GRADE","Grade","faobj-9","PRE-SPECIFIED AE","0",NA,NA,"700"
"test-studyid","FA","testusubjid-7205",NA,"xfLs1e","GRADE","Grade","faobj-10","PRE-SPECIFIED AE","0",NA,NA,"200"
"test-studyid","FA","testusubjid-7205",NA,"ZVexGJ","GRADE","Grade","faobj-10","PRE-SPECIFIED AE","0",NA,NA,"400"
"test-studyid","FA","testusubjid-7205",NA,"qpytT5","GRADE","Grade","faobj-10","PRE-SPECIFIED AE","0",NA,NA,"600"
"test-studyid","FA","testusubjid-7205",NA,"8qcp7d","GRADE","Grade","faobj-10","PRE-SPECIFIED AE","0",NA,NA,"700"
"test-studyid","FA","testusubjid-7205",NA,"fx9ryX","TRT","Treatment","faobj-11","EXPOSURE","1",NA,"Y","1300"
"test-studyid","FA","testusubjid-1521",NA,"obsu2f","GRADE","Grade","faobj-3","PRE-SPECIFIED AE","0",NA,NA,"1000"
"test-studyid","FA","testusubjid-1521",NA,"jlajhe","GRADE","Grade","faobj-3","PRE-SPECIFIED AE","0",NA,NA,"200"
"test-studyid","FA","testusubjid-1521",NA,"N4Ihyr","GRADE","Grade","faobj-3","PRE-SPECIFIED AE","0",NA,NA,"400"
"test-studyid","FA","testusubjid-1521",NA,"9vy8rH","GRADE","Grade","faobj-3","PRE-SPECIFIED AE","0",NA,NA,"600"
"test-studyid","FA","testusubjid-1521",NA,"6y01ey","GRADE","Grade","faobj-3","PRE-SPECIFIED AE","0",NA,NA,"700"
"test-studyid","FA","testusubjid-1521",NA,"mjrDeN","GRADE","Grade","faobj-4","PRE-SPECIFIED AE","2",NA,NA,"1000"
"test-studyid","FA","testusubjid-1521",NA,"Ms1Blc","GRADE","Grade","faobj-4","PRE-SPECIFIED AE","0",NA,NA,"200"
"test-studyid","FA","testusubjid-1521",NA,"06UjkP","GRADE","Grade","faobj-4","PRE-SPECIFIED AE","0",NA,NA,"400"
"test-studyid","FA","testusubjid-1521",NA,"27dMVV","GRADE","Grade","faobj-4","PRE-SPECIFIED AE","0",NA,NA,"600"
"test-studyid","FA","testusubjid-1521",NA,"W0qCn3","GRADE","Grade","faobj-4","PRE-SPECIFIED AE","1",NA,NA,"700"
"test-studyid","FA","testusubjid-1521",NA,"76loEx","GRADE","Grade","faobj-5","PRE-SPECIFIED AE","0",NA,NA,"1000"
"test-studyid","FA","testusubjid-1521",NA,"oloiXG","GRADE","Grade","faobj-5","PRE-SPECIFIED AE","0",NA,NA,"200"
"test-studyid","FA","testusubjid-1521",NA,"DmkvUN","GRADE","Grade","faobj-5","PRE-SPECIFIED AE","0",NA,NA,"400"
"test-studyid","FA","testusubjid-1521",NA,"jHbKQI","GRADE","Grade","faobj-5","PRE-SPECIFIED AE","0",NA,NA,"600"
"test-studyid","FA","testusubjid-1521",NA,"RYkNc3","GRADE","Grade","faobj-5","PRE-SPECIFIED AE","0",NA,NA,"700"
"test-studyid","FA","testusubjid-1521",NA,"dxyETy","GRADE","Grade","faobj-6","PRE-SPECIFIED AE","1",NA,NA,"1000"
"test-studyid","FA","testusubjid-1521",NA,"sgA9iz","GRADE","Grade","faobj-6","PRE-SPECIFIED AE","0",NA,NA,"200"
"test-studyid","FA","testusubjid-1521",NA,"VqlR2P","GRADE","Grade","faobj-6","PRE-SPECIFIED AE","0",NA,NA,"400"
"test-studyid","FA","testusubjid-1521",NA,"HIOfuw","GRADE","Grade","faobj-6","PRE-SPECIFIED AE","0",NA,NA,"600"
"test-studyid","FA","testusubjid-1521",NA,"yHc3MS","GRADE","Grade","faobj-6","PRE-SPECIFIED AE","0",NA,NA,"700"
"test-studyid","FA","testusubjid-1521",NA,"aeeJoJ","GRADE","Grade","faobj-7","PRE-SPECIFIED AE","3",NA,NA,"1000"
"test-studyid","FA","testusubjid-1521",NA,"AxU7iU","GRADE","Grade","faobj-7","PRE-SPECIFIED AE","1",NA,NA,"200"
"test-studyid","FA","testusubjid-1521",NA,"6s7x9a","GRADE","Grade","faobj-7","PRE-SPECIFIED AE","2",NA,NA,"400"
"test-studyid","FA","testusubjid-1521",NA,"0Rrb43","GRADE","Grade","faobj-7","PRE-SPECIFIED AE","1",NA,NA,"600"
"test-studyid","FA","testusubjid-1521",NA,"bvg3mS","GRADE","Grade","faobj-7","PRE-SPECIFIED AE","2",NA,NA,"700"
"test-studyid","FA","testusubjid-1521",NA,"yfCP6D","GRADE","Grade","faobj-8","PRE-SPECIFIED AE","3",NA,NA,"200"
"test-studyid","FA","testusubjid-1521",NA,"S3qTR6","GRADE","Grade","faobj-8","PRE-SPECIFIED AE","2",NA,NA,"400"
"test-studyid","FA","testusubjid-1521",NA,"wuX7vx","GRADE","Grade","faobj-8","PRE-SPECIFIED AE","0",NA,NA,"700"
"test-studyid","FA","testusubjid-1521",NA,"6suh7O","GRADE","Grade","faobj-9","PRE-SPECIFIED AE","0",NA,NA,"1000"
"test-studyid","FA","testusubjid-1521",NA,"0AC0PB","GRADE","Grade","faobj-9","PRE-SPECIFIED AE","0",NA,NA,"200"
"test-studyid","FA","testusubjid-1521",NA,"y5sgd8","GRADE","Grade","faobj-9","PRE-SPECIFIED AE","0",NA,NA,"400"
"test-studyid","FA","testusubjid-1521",NA,"7znDwa","GRADE","Grade","faobj-9","PRE-SPECIFIED AE","0",NA,NA,"600"
"test-studyid","FA","testusubjid-1521",NA,"3og18r","GRADE","Grade","faobj-9","PRE-SPECIFIED AE","0",NA,NA,"700"
"test-studyid","FA","testusubjid-1521",NA,"p1GDLg","GRADE","Grade","faobj-10","PRE-SPECIFIED AE","0",NA,NA,"1000"
"test-studyid","FA","testusubjid-1521",NA,"A8sdDf","GRADE","Grade","faobj-10","PRE-SPECIFIED AE","0",NA,NA,"200"
"test-studyid","FA","testusubjid-1521",NA,"IadAL7","GRADE","Grade","faobj-10","PRE-SPECIFIED AE","0",NA,NA,"400"
"test-studyid","FA","testusubjid-1521",NA,"2eAWHz","GRADE","Grade","faobj-10","PRE-SPECIFIED AE","0",NA,NA,"600"
"test-studyid","FA","testusubjid-1521",NA,"fzQyOG","GRADE","Grade","faobj-10","PRE-SPECIFIED AE","0",NA,NA,"700"
"test-studyid","FA","testusubjid-1521",NA,"zUGyHU","TRT","Treatment","faobj-11","EXPOSURE","2",NA,"Y","1300"
"test-studyid","FA","testusubjid-5924",NA,"0yttqK","GRADE","Grade","faobj-3","PRE-SPECIFIED AE","0",NA,NA,"200"
"test-studyid","FA","testusubjid-5924",NA,"VCj4R3","GRADE","Grade","faobj-3","PRE-SPECIFIED AE","0",NA,NA,"400"
"test-studyid","FA","testusubjid-5924",NA,"EJYojL","GRADE","Grade","faobj-3","PRE-SPECIFIED AE","0",NA,NA,"600"
"test-studyid","FA","testusubjid-5924",NA,"HSVf5o","GRADE","Grade","faobj-3","PRE-SPECIFIED AE","0",NA,NA,"700"
"test-studyid","FA","testusubjid-5924",NA,"24S5Sn","GRADE","Grade","faobj-3","PRE-SPECIFIED AE","0",NA,NA,"800"
"test-studyid","FA","testusubjid-5924",NA,"lYe4iC","GRADE","Grade","faobj-3","PRE-SPECIFIED AE","0",NA,NA,"900"
"test-studyid","FA","testusubjid-5924",NA,"O7pf5v","GRADE","Grade","faobj-4","PRE-SPECIFIED AE","0",NA,NA,"200"
"test-studyid","FA","testusubjid-5924",NA,"6I33Cf","GRADE","Grade","faobj-4","PRE-SPECIFIED AE","0",NA,NA,"400"
"test-studyid","FA","testusubjid-5924",NA,"Q9rEJM","GRADE","Grade","faobj-4","PRE-SPECIFIED AE","0",NA,NA,"600"
"test-studyid","FA","testusubjid-5924",NA,"8srAJW","GRADE","Grade","faobj-4","PRE-SPECIFIED AE","1",NA,NA,"700"
"test-studyid","FA","testusubjid-5924",NA,"UidzTO","GRADE","Grade","faobj-4","PRE-SPECIFIED AE","0",NA,NA,"800"
"test-studyid","FA","testusubjid-5924",NA,"KpgPHR","GRADE","Grade","faobj-4","PRE-SPECIFIED AE","0",NA,NA,"900"
"test-studyid","FA","testusubjid-5924",NA,"Fsqqt6","GRADE","Grade","faobj-5","PRE-SPECIFIED AE","0",NA,NA,"200"
"test-studyid","FA","testusubjid-5924",NA,"5gFwig","GRADE","Grade","faobj-5","PRE-SPECIFIED AE","0",NA,NA,"400"
"test-studyid","FA","testusubjid-5924",NA,"CHldBr","GRADE","Grade","faobj-5","PRE-SPECIFIED AE","0",NA,NA,"600"
"test-studyid","FA","testusubjid-5924",NA,"1apaCT","GRADE","Grade","faobj-5","PRE-SPECIFIED AE","0",NA,NA,"700"
"test-studyid","FA","testusubjid-5924",NA,"ytyhse","GRADE","Grade","faobj-5","PRE-SPECIFIED AE","0",NA,NA,"800"
"test-studyid","FA","testusubjid-5924",NA,"6xBusx","GRADE","Grade","faobj-5","PRE-SPECIFIED AE","0",NA,NA,"900"
"test-studyid","FA","testusubjid-5924",NA,"uwdTSM","GRADE","Grade","faobj-6","PRE-SPECIFIED AE","4",NA,NA,"200"
"test-studyid","FA","testusubjid-5924",NA,"oaHHIQ","GRADE","Grade","faobj-6","PRE-SPECIFIED AE","4",NA,NA,"400"
"test-studyid","FA","testusubjid-5924",NA,"VfZsXk","GRADE","Grade","faobj-6","PRE-SPECIFIED AE","0",NA,NA,"600"
"test-studyid","FA","testusubjid-5924",NA,"5q4xGd","GRADE","Grade","faobj-6","PRE-SPECIFIED AE","3",NA,NA,"700"
"test-studyid","FA","testusubjid-5924",NA,"7YWAIM","GRADE","Grade","faobj-6","PRE-SPECIFIED AE","0",NA,NA,"800"
"test-studyid","FA","testusubjid-5924",NA,"Y8g20G","GRADE","Grade","faobj-6","PRE-SPECIFIED AE","3",NA,NA,"900"
"test-studyid","FA","testusubjid-5924",NA,"BHgG5m","GRADE","Grade","faobj-7","PRE-SPECIFIED AE","2",NA,NA,"200"
"test-studyid","FA","testusubjid-5924",NA,"TsOmqU","GRADE","Grade","faobj-7","PRE-SPECIFIED AE","4",NA,NA,"400"
"test-studyid","FA","testusubjid-5924",NA,"QK5fV1","GRADE","Grade","faobj-7","PRE-SPECIFIED AE","0",NA,NA,"600"
"test-studyid","FA","testusubjid-5924",NA,"BGnkyR","GRADE","Grade","faobj-7","PRE-SPECIFIED AE","1",NA,NA,"700"
"test-studyid","FA","testusubjid-5924",NA,"KjChVV","GRADE","Grade","faobj-7","PRE-SPECIFIED AE","0",NA,NA,"800"
"test-studyid","FA","testusubjid-5924",NA,"ArCRFO","GRADE","Grade","faobj-7","PRE-SPECIFIED AE","1",NA,NA,"900"
"test-studyid","FA","testusubjid-5924",NA,"0NSM8m","GRADE","Grade","faobj-8","PRE-SPECIFIED AE","0",NA,NA,"200"
"test-studyid","FA","testusubjid-5924",NA,"rsYDjA","GRADE","Grade","faobj-8","PRE-SPECIFIED AE","0",NA,NA,"400"
"test-studyid","FA","testusubjid-5924",NA,"BFOfHW","GRADE","Grade","faobj-8","PRE-SPECIFIED AE","0",NA,NA,"700"
"test-studyid","FA","testusubjid-5924",NA,"JVxQQt","GRADE","Grade","faobj-8","PRE-SPECIFIED AE","0",NA,NA,"900"
"test-studyid","FA","testusubjid-5924",NA,"fl7BfT","GRADE","Grade","faobj-9","PRE-SPECIFIED AE","0",NA,NA,"200"
"test-studyid","FA","testusubjid-5924",NA,"ba1pH4","GRADE","Grade","faobj-9","PRE-SPECIFIED AE","0",NA,NA,"400"
"test-studyid","FA","testusubjid-5924",NA,"Rnne9h","GRADE","Grade","faobj-9","PRE-SPECIFIED AE","0",NA,NA,"600"
"test-studyid","FA","testusubjid-5924",NA,"jyB1hl","GRADE","Grade","faobj-9","PRE-SPECIFIED AE","0",NA,NA,"700"
"test-studyid","FA","testusubjid-5924",NA,"7DzfuL","GRADE","Grade","faobj-9","PRE-SPECIFIED AE","0",NA,NA,"800"
"test-studyid","FA","testusubjid-5924",NA,"IfOm9l","GRADE","Grade","faobj-9","PRE-SPECIFIED AE","0",NA,NA,"900"
"test-studyid","FA","testusubjid-5924",NA,"EKUOiD","GRADE","Grade","faobj-10","PRE-SPECIFIED AE","0",NA,NA,"200"
"test-studyid","FA","testusubjid-5924",NA,"Fh7W0z","GRADE","Grade","faobj-10","PRE-SPECIFIED AE","0",NA,NA,"400"
"test-studyid","FA","testusubjid-5924",NA,"g6pkhy","GRADE","Grade","faobj-10","PRE-SPECIFIED AE","0",NA,NA,"600"
"test-studyid","FA","testusubjid-5924",NA,"Qq5KPs","GRADE","Grade","faobj-10","PRE-SPECIFIED AE","0",NA,NA,"700"
"test-studyid","FA","testusubjid-5924",NA,"xiRd2b","GRADE","Grade","faobj-10","PRE-SPECIFIED AE","0",NA,NA,"800"
"test-studyid","FA","testusubjid-5924",NA,"qVapKw","GRADE","Grade","faobj-10","PRE-SPECIFIED AE","0",NA,NA,"900"
"test-studyid","FA","testusubjid-5924",NA,"4e1iFK","TRT","Treatment","faobj-11","EXPOSURE","1",NA,"Y","1300"
"test-studyid","FA","testusubjid-9300",NA,"puzoyX","GRADE","Grade","faobj-3","PRE-SPECIFIED AE","0",NA,NA,"200"
"test-studyid","FA","testusubjid-9300",NA,"6V9zQ6","GRADE","Grade","faobj-3","PRE-SPECIFIED AE","0",NA,NA,"400"
"test-studyid","FA","testusubjid-9300",NA,"E1SteM","GRADE","Grade","faobj-4","PRE-SPECIFIED AE","0",NA,NA,"200"
"test-studyid","FA","testusubjid-9300",NA,"hdbUaU","GRADE","Grade","faobj-4","PRE-SPECIFIED AE","0",NA,NA,"400"
"test-studyid","FA","testusubjid-9300",NA,"CR7Cq5","GRADE","Grade","faobj-5","PRE-SPECIFIED AE","0",NA,NA,"200"
"test-studyid","FA","testusubjid-9300",NA,"1qTpwi","GRADE","Grade","faobj-5","PRE-SPECIFIED AE","0",NA,NA,"400"
"test-studyid","FA","testusubjid-9300",NA,"jVaLIZ","GRADE","Grade","faobj-6","PRE-SPECIFIED AE","1",NA,NA,"200"
"test-studyid","FA","testusubjid-9300",NA,"lbTkvv","GRADE","Grade","faobj-6","PRE-SPECIFIED AE","1",NA,NA,"400"
"test-studyid","FA","testusubjid-9300",NA,"gVXGB9","GRADE","Grade","faobj-7","PRE-SPECIFIED AE","1",NA,NA,"200"
"test-studyid","FA","testusubjid-9300",NA,"Pibj9G","GRADE","Grade","faobj-7","PRE-SPECIFIED AE","0",NA,NA,"400"
"test-studyid","FA","testusubjid-9300",NA,"nPMGmc","GRADE","Grade","faobj-8","PRE-SPECIFIED AE","0",NA,NA,"200"
"test-studyid","FA","testusubjid-9300",NA,"lKBfsd","GRADE","Grade","faobj-8","PRE-SPECIFIED AE","0",NA,NA,"400"
"test-studyid","FA","testusubjid-9300",NA,"hhLKPw","GRADE","Grade","faobj-9","PRE-SPECIFIED AE","0",NA,NA,"200"
"test-studyid","FA","testusubjid-9300",NA,"1ig833","GRADE","Grade","faobj-9","PRE-SPECIFIED AE","0",NA,NA,"400"
"test-studyid","FA","testusubjid-9300",NA,"JkFBnw","GRADE","Grade","faobj-10","PRE-SPECIFIED AE","0",NA,NA,"200"
"test-studyid","FA","testusubjid-9300",NA,"CgJSGH","GRADE","Grade","faobj-10","PRE-SPECIFIED AE","0",NA,NA,"400"
"test-studyid","FA","testusubjid-6800",NA,"Bd5Mn5","GRADE","Grade","faobj-3","PRE-SPECIFIED AE","0",NA,NA,"200"
"test-studyid","FA","testusubjid-6800",NA,"mI38nP","GRADE","Grade","faobj-3","PRE-SPECIFIED AE","0",NA,NA,"400"
"test-studyid","FA","testusubjid-6800",NA,"2KoLNu","GRADE","Grade","faobj-4","PRE-SPECIFIED AE","0",NA,NA,"200"
"test-studyid","FA","testusubjid-6800",NA,"cMTc9p","GRADE","Grade","faobj-4","PRE-SPECIFIED AE","0",NA,NA,"400"
"test-studyid","FA","testusubjid-6800",NA,"3xZqvM","GRADE","Grade","faobj-5","PRE-SPECIFIED AE","0",NA,NA,"200"
"test-studyid","FA","testusubjid-6800",NA,"niTreV","GRADE","Grade","faobj-5","PRE-SPECIFIED AE","0",NA,NA,"400"
"test-studyid","FA","testusubjid-6800",NA,"9W3cOy","GRADE","Grade","faobj-6","PRE-SPECIFIED AE","0",NA,NA,"200"
"test-studyid","FA","testusubjid-6800",NA,"XoAi3i","GRADE","Grade","faobj-6","PRE-SPECIFIED AE","0",NA,NA,"400"
"test-studyid","FA","testusubjid-6800",NA,"XDQeMW","GRADE","Grade","faobj-7","PRE-SPECIFIED AE","0",NA,NA,"200"
"test-studyid","FA","testusubjid-6800",NA,"tmgquB","GRADE","Grade","faobj-7","PRE-SPECIFIED AE","0",NA,NA,"400"
"test-studyid","FA","testusubjid-6800",NA,"6wX43v","GRADE","Grade","faobj-8","PRE-SPECIFIED AE","0",NA,NA,"200"
"test-studyid","FA","testusubjid-6800",NA,"yv6Elf","GRADE","Grade","faobj-8","PRE-SPECIFIED AE","0",NA,NA,"400"
"test-studyid","FA","testusubjid-6800",NA,"SblP9F","GRADE","Grade","faobj-9","PRE-SPECIFIED AE","0",NA,NA,"200"
"test-studyid","FA","testusubjid-6800",NA,"Xivjgp","GRADE","Grade","faobj-9","PRE-SPECIFIED AE","0",NA,NA,"400"
"test-studyid","FA","testusubjid-6800",NA,"OHx92O","GRADE","Grade","faobj-10","PRE-SPECIFIED AE","0",NA,NA,"200"
"test-studyid","FA","testusubjid-6800",NA,"zhMnhS","GRADE","Grade","faobj-10","PRE-SPECIFIED AE","0",NA,NA,"400"
"test-studyid","FA","testusubjid-1783",NA,"aiZH0X","GRADE","Grade","faobj-3","PRE-SPECIFIED AE","0",NA,NA,"200"
"test-studyid","FA","testusubjid-1783",NA,"seBKNT","GRADE","Grade","faobj-3","PRE-SPECIFIED AE","0",NA,NA,"400"
"test-studyid","FA","testusubjid-1783",NA,"WKoP5N","GRADE","Grade","faobj-4","PRE-SPECIFIED AE","1",NA,NA,"200"
"test-studyid","FA","testusubjid-1783",NA,"qG619r","GRADE","Grade","faobj-4","PRE-SPECIFIED AE","0",NA,NA,"400"
"test-studyid","FA","testusubjid-1783",NA,"NqVYE5","GRADE","Grade","faobj-5","PRE-SPECIFIED AE","0",NA,NA,"200"
"test-studyid","FA","testusubjid-1783",NA,"iezeI7","GRADE","Grade","faobj-5","PRE-SPECIFIED AE","0",NA,NA,"400"
"test-studyid","FA","testusubjid-1783",NA,"4UJ9cH","GRADE","Grade","faobj-6","PRE-SPECIFIED AE","2",NA,NA,"200"
"test-studyid","FA","testusubjid-1783",NA,"beZIB6","GRADE","Grade","faobj-6","PRE-SPECIFIED AE","0",NA,NA,"400"
"test-studyid","FA","testusubjid-1783",NA,"FWHv5i","GRADE","Grade","faobj-7","PRE-SPECIFIED AE","1",NA,NA,"200"
"test-studyid","FA","testusubjid-1783",NA,"eMatpC","GRADE","Grade","faobj-7","PRE-SPECIFIED AE","0",NA,NA,"400"
"test-studyid","FA","testusubjid-1783",NA,"xaowNp","GRADE","Grade","faobj-8","PRE-SPECIFIED AE","0",NA,NA,"200"
"test-studyid","FA","testusubjid-1783",NA,"jfabjb","GRADE","Grade","faobj-8","PRE-SPECIFIED AE","0",NA,NA,"400"
"test-studyid","FA","testusubjid-1783",NA,"lOOOCt","GRADE","Grade","faobj-9","PRE-SPECIFIED AE","0",NA,NA,"200"
"test-studyid","FA","testusubjid-1783",NA,"40YZj0","GRADE","Grade","faobj-9","PRE-SPECIFIED AE","0",NA,NA,"400"
"test-studyid","FA","testusubjid-1783",NA,"mtVkBY","GRADE","Grade","faobj-10","PRE-SPECIFIED AE","0",NA,NA,"200"
"test-studyid","FA","testusubjid-1783",NA,"WyhlS8","GRADE","Grade","faobj-10","PRE-SPECIFIED AE","0",NA,NA,"400"
"test-studyid","FA","testusubjid-4553",NA,"vm2Kmt","GRADE","Grade","faobj-3","PRE-SPECIFIED AE","0",NA,NA,"200"
"test-studyid","FA","testusubjid-4553",NA,"bswzUL","GRADE","Grade","faobj-3","PRE-SPECIFIED AE","0",NA,NA,"400"
"test-studyid","FA","testusubjid-4553",NA,"pFP3yc","GRADE","Grade","faobj-4","PRE-SPECIFIED AE","0",NA,NA,"200"
"test-studyid","FA","testusubjid-4553",NA,"c4GVjZ","GRADE","Grade","faobj-4","PRE-SPECIFIED AE","0",NA,NA,"400"
"test-studyid","FA","testusubjid-4553",NA,"Jaj78w","GRADE","Grade","faobj-5","PRE-SPECIFIED AE","0",NA,NA,"200"
"test-studyid","FA","testusubjid-4553",NA,"822XN4","GRADE","Grade","faobj-5","PRE-SPECIFIED AE","0",NA,NA,"400"
"test-studyid","FA","testusubjid-4553",NA,"diDo6g","GRADE","Grade","faobj-6","PRE-SPECIFIED AE","0",NA,NA,"200"
"test-studyid","FA","testusubjid-4553",NA,"kRjCZv","GRADE","Grade","faobj-6","PRE-SPECIFIED AE","0",NA,NA,"400"
"test-studyid","FA","testusubjid-4553",NA,"XLkUrt","GRADE","Grade","faobj-7","PRE-SPECIFIED AE","2",NA,NA,"200"
"test-studyid","FA","testusubjid-4553",NA,"eZ0EGm","GRADE","Grade","faobj-7","PRE-SPECIFIED AE","2",NA,NA,"400"
"test-studyid","FA","testusubjid-4553",NA,"ZlHIt1","GRADE","Grade","faobj-8","PRE-SPECIFIED AE","0",NA,NA,"200"
"test-studyid","FA","testusubjid-4553",NA,"vAWw0O","GRADE","Grade","faobj-8","PRE-SPECIFIED AE","0",NA,NA,"400"
"test-studyid","FA","testusubjid-4553",NA,"pGoeL3","GRADE","Grade","faobj-9","PRE-SPECIFIED AE","0",NA,NA,"200"
"test-studyid","FA","testusubjid-4553",NA,"TGubhb","GRADE","Grade","faobj-9","PRE-SPECIFIED AE","0",NA,NA,"400"
"test-studyid","FA","testusubjid-4553",NA,"JCSHwz","GRADE","Grade","faobj-10","PRE-SPECIFIED AE","0",NA,NA,"200"
"test-studyid","FA","testusubjid-4553",NA,"7CAutK","GRADE","Grade","faobj-10","PRE-SPECIFIED AE","0",NA,NA,"400"
"test-studyid","FA","testusubjid-7242",NA,"OykRDD","GRADE","Grade","faobj-3","PRE-SPECIFIED AE","0",NA,NA,"200"
"test-studyid","FA","testusubjid-7242",NA,"k8KHSE","GRADE","Grade","faobj-3","PRE-SPECIFIED AE","0",NA,NA,"400"
"test-studyid","FA","testusubjid-7242",NA,"5MTENO","GRADE","Grade","faobj-3","PRE-SPECIFIED AE","0",NA,NA,"600"
"test-studyid","FA","testusubjid-7242",NA,"6ZVZIU","GRADE","Grade","faobj-4","PRE-SPECIFIED AE","0",NA,NA,"200"
"test-studyid","FA","testusubjid-7242",NA,"10mrdY","GRADE","Grade","faobj-4","PRE-SPECIFIED AE","0",NA,NA,"400"
"test-studyid","FA","testusubjid-7242",NA,"0hh2Lk","GRADE","Grade","faobj-4","PRE-SPECIFIED AE","0",NA,NA,"600"
"test-studyid","FA","testusubjid-7242",NA,"htKpN6","GRADE","Grade","faobj-5","PRE-SPECIFIED AE","0",NA,NA,"200"
"test-studyid","FA","testusubjid-7242",NA,"cxQeA9","GRADE","Grade","faobj-5","PRE-SPECIFIED AE","0",NA,NA,"400"
"test-studyid","FA","testusubjid-7242",NA,"MQfAJG","GRADE","Grade","faobj-5","PRE-SPECIFIED AE","0",NA,NA,"600"
"test-studyid","FA","testusubjid-7242",NA,"gHvUxF","GRADE","Grade","faobj-6","PRE-SPECIFIED AE","0",NA,NA,"200"
"test-studyid","FA","testusubjid-7242",NA,"9Hgk5G","GRADE","Grade","faobj-6","PRE-SPECIFIED AE","0",NA,NA,"400"
"test-studyid","FA","testusubjid-7242",NA,"v0ghh9","GRADE","Grade","faobj-6","PRE-SPECIFIED AE","0",NA,NA,"600"
"test-studyid","FA","testusubjid-7242",NA,"JrzmFr","GRADE","Grade","faobj-7","PRE-SPECIFIED AE","0",NA,NA,"200"
"test-studyid","FA","testusubjid-7242",NA,"K6SmJc","GRADE","Grade","faobj-7","PRE-SPECIFIED AE","0",NA,NA,"400"
"test-studyid","FA","testusubjid-7242",NA,"aFFVmA","GRADE","Grade","faobj-7","PRE-SPECIFIED AE","0",NA,NA,"600"
"test-studyid","FA","testusubjid-7242",NA,"TtwMfL","GRADE","Grade","faobj-8","PRE-SPECIFIED AE","0",NA,NA,"200"
"test-studyid","FA","testusubjid-7242",NA,"7z8g5i","GRADE","Grade","faobj-8","PRE-SPECIFIED AE","0",NA,NA,"400"
"test-studyid","FA","testusubjid-7242",NA,"DFf7Up","GRADE","Grade","faobj-9","PRE-SPECIFIED AE","0",NA,NA,"200"
"test-studyid","FA","testusubjid-7242",NA,"HQUXgD","GRADE","Grade","faobj-9","PRE-SPECIFIED AE","0",NA,NA,"400"
"test-studyid","FA","testusubjid-7242",NA,"nDLGLA","GRADE","Grade","faobj-9","PRE-SPECIFIED AE","0",NA,NA,"600"
"test-studyid","FA","testusubjid-7242",NA,"DmfPHm","GRADE","Grade","faobj-10","PRE-SPECIFIED AE","0",NA,NA,"200"
"test-studyid","FA","testusubjid-7242",NA,"81H54B","GRADE","Grade","faobj-10","PRE-SPECIFIED AE","0",NA,NA,"400"
"test-studyid","FA","testusubjid-7242",NA,"8Wyhl0","GRADE","Grade","faobj-10","PRE-SPECIFIED AE","0",NA,NA,"600"
"test-studyid","FA","testusubjid-9403",NA,"65SXNP","GRADE","Grade","faobj-3","PRE-SPECIFIED AE","0",NA,NA,"200"
"test-studyid","FA","testusubjid-9403",NA,"qfrBfH","GRADE","Grade","faobj-3","PRE-SPECIFIED AE","0",NA,NA,"400"
"test-studyid","FA","testusubjid-9403",NA,"W9jIGy","GRADE","Grade","faobj-3","PRE-SPECIFIED AE","0",NA,NA,"600"
"test-studyid","FA","testusubjid-9403",NA,"sB4Mh7","GRADE","Grade","faobj-4","PRE-SPECIFIED AE","0",NA,NA,"200"
"test-studyid","FA","testusubjid-9403",NA,"VzFGim","GRADE","Grade","faobj-4","PRE-SPECIFIED AE","0",NA,NA,"400"
"test-studyid","FA","testusubjid-9403",NA,"BKfJA9","GRADE","Grade","faobj-4","PRE-SPECIFIED AE","0",NA,NA,"600"
"test-studyid","FA","testusubjid-9403",NA,"EO89AF","GRADE","Grade","faobj-5","PRE-SPECIFIED AE","0",NA,NA,"200"
"test-studyid","FA","testusubjid-9403",NA,"nSSWAu","GRADE","Grade","faobj-5","PRE-SPECIFIED AE","0",NA,NA,"400"
"test-studyid","FA","testusubjid-9403",NA,"A64RFI","GRADE","Grade","faobj-5","PRE-SPECIFIED AE","0",NA,NA,"600"
"test-studyid","FA","testusubjid-9403",NA,"Lkf8PH","GRADE","Grade","faobj-6","PRE-SPECIFIED AE","4",NA,NA,"200"
"test-studyid","FA","testusubjid-9403",NA,"jiZTs0","GRADE","Grade","faobj-6","PRE-SPECIFIED AE","0",NA,NA,"400"
"test-studyid","FA","testusubjid-9403",NA,"hO2okM","GRADE","Grade","faobj-6","PRE-SPECIFIED AE","0",NA,NA,"600"
"test-studyid","FA","testusubjid-9403",NA,"4psGKv","GRADE","Grade","faobj-7","PRE-SPECIFIED AE","3",NA,NA,"200"
"test-studyid","FA","testusubjid-9403",NA,"PXJVEv","GRADE","Grade","faobj-7","PRE-SPECIFIED AE","1",NA,NA,"400"
"test-studyid","FA","testusubjid-9403",NA,"CVQ0qu","GRADE","Grade","faobj-7","PRE-SPECIFIED AE","0",NA,NA,"600"
"test-studyid","FA","testusubjid-9403",NA,"87WpnW","GRADE","Grade","faobj-8","PRE-SPECIFIED AE","0",NA,NA,"200"
"test-studyid","FA","testusubjid-9403",NA,"os93IQ","GRADE","Grade","faobj-8","PRE-SPECIFIED AE","0",NA,NA,"400"
"test-studyid","FA","testusubjid-9403",NA,"oBdRpO","GRADE","Grade","faobj-9","PRE-SPECIFIED AE","0",NA,NA,"200"
"test-studyid","FA","testusubjid-9403",NA,"Ab1ktW","GRADE","Grade","faobj-9","PRE-SPECIFIED AE","0",NA,NA,"400"
"test-studyid","FA","testusubjid-9403",NA,"ps4Ps3","GRADE","Grade","faobj-9","PRE-SPECIFIED AE","0",NA,NA,"600"
"test-studyid","FA","testusubjid-9403",NA,"PXyhbK","GRADE","Grade","faobj-10","PRE-SPECIFIED AE","0",NA,NA,"200"
"test-studyid","FA","testusubjid-9403",NA,"flJsp9","GRADE","Grade","faobj-10","PRE-SPECIFIED AE","0",NA,NA,"400"
"test-studyid","FA","testusubjid-9403",NA,"LdNnRy","GRADE","Grade","faobj-10","PRE-SPECIFIED AE","0",NA,NA,"600"
